run.thisRepN,run.thisTrialN,run.thisN,run.thisIndex,artifact_trial.thisRepN,artifact_trial.thisTrialN,artifact_trial.thisN,artifact_trial.thisIndex,QA_block.thisRepN,QA_block.thisTrialN,QA_block.thisN,QA_block.thisIndex,QA_trial.thisRepN,QA_trial.thisTrialN,QA_trial.thisN,QA_trial.thisIndex,fade_in_text.text,fade_in_text.started,fade_in_text.stopped,Artifact_intro_title.started,Artifact_intro_title.stopped,Artifact_intro_text.text,Artifact_intro_text.started,Artifact_intro_text.stopped,Artifact_intro_audio.started,Artifact_intro_audio.stopped,Artifact_intro_cont.started,Artifact_intro_cont.stopped,Artifact_rec_text.text,Artifact_rec_text.started,Artifact_rec_text.stopped,Artifact_rec_beep_hint.started,Artifact_rec_beep_hint.stopped,Artifact_rec_action.started,Artifact_rec_action.stopped,Artifact_rec_beep_start.started,Artifact_rec_beep_start.stopped,Artifact_rec_recording.started,Artifact_rec_recording.stopped,Artifact_rec_beep_end.started,Artifact_rec_beep_end.stopped,Artifact_rec_break.started,Artifact_rec_break.stopped,RS_intro_title.started,RS_intro_title.stopped,RS_intro_text.text,RS_intro_text.started,RS_intro_text.stopped,RS_intro_audio.started,RS_intro_audio.stopped,RS_rec_text.text,RS_rec_text.started,RS_rec_text.stopped,Pause_cont.started,Pause_cont.stopped,QA_intro_title.started,QA_intro_title.stopped,QA_intro_text.text,QA_intro_text.started,QA_intro_text.stopped,QA_intro_audio.started,QA_intro_audio.stopped,QA_intro_cont.started,QA_intro_cont.stopped,QA_rec_text.text,QA_rec_text.started,QA_rec_text.stopped,QA_rec_beep_hint.started,QA_rec_beep_hint.stopped,QA_rec_question.sen_text,QA_rec_question.cen_text,QA_rec_question.started,QA_rec_question.stopped,QA_rec_beep_start.started,QA_rec_beep_start.stopped,QA_rec_beep_end.started,QA_rec_beep_end.stopped,QA_rec_break.started,QA_rec_break.stopped,filename,fade_out_text.text,fade_out_text.started,fade_out_text.stopped,participant,session,First language,German level,Full_screen,Instruction,Intro,Artifact,Cali_pre,Fade_in_out,Artifact_within,Resting_State,QA,Pause,Cali_post,End,Breakpoint_Cali_pre_trial,Breakpoint_Run,Breakpoint_RS_block,Breakpoint_QA_block,Breakpoint_QA_trial,Breakpoint_Cali_post_trial,date,expName,psychopyVersion,frameRate,
2,0,2,0,0,0,0,0,,,,,,,,,Please remain seated until further instruction via the earphone.,54.35818791389465,None,56.39175987243652,None,"  - Task: Artifacts collection   
  - Please follow audio instruction              
",56.39175987243652,None,56.37536616325379,None,82.75979495048523,None,,84.79295992851257,None,84.77697319984436,86.77632093429565,86.17636890411377,None,89.57654185295105,90.57651090621948,90.97653980255127,100.97713088989258,101.37715287208557,None,102.77723097801208,103.77718496322632,,,,,,,,,,,,,,,,,,,,,,,,,,,,,,,,,,,,,,,,,07,02,English,B1,True,False,True,False,False,True,True,True,True,True,True,True,No,2,No,No,No,No,2020_Jul_22_1045,nibs_stage_1,3.2.3,60.0247007926865,
2,0,2,0,1,0,1,0,,,,,,,,,,,,,,,,,,,,,,106.81083989143372,None,106.79449315071106,108.79439306259155,108.1778139591217,None,111.57786293029785,None,112.97781891822815,122.97842907905579,123.3784839630127,124.37849688529968,124.77871990203857,125.77854704856873,,,,,,,,,,,,,,,,,,,,,,,,,,,,,,,,,,,,,,,,,07,02,English,B1,True,False,True,False,False,True,True,True,True,True,True,True,No,2,No,No,No,No,2020_Jul_22_1045,nibs_stage_1,3.2.3,60.0247007926865,
2,0,2,0,2,0,2,0,,,,,,,,,,,,,,,,,,,,,,128.81240701675415,None,128.81246514320372,130.81218004226685,130.19538087844847,None,133.59581298828124,134.59569907188416,134.99570984840392,144.9964349269867,145.39624996185302,None,146.79631686210632,147.79638195037842,,,,,,,,,,,,,,,,,,,,,,,,,,,,,,,,,,,,,,,,,07,02,English,B1,True,False,True,False,False,True,True,True,True,True,True,True,No,2,No,No,No,No,2020_Jul_22_1045,nibs_stage_1,3.2.3,60.0247007926865,
2,0,2,0,3,0,3,0,,,,,,,,,,,,,,,,,,,,,,150.82976508140564,150.82976508140564,150.8138081550598,152.81297993659973,152.21303887367247,None,155.61321492195128,None,157.01325197219847,167.01382899284363,167.4138249874115,None,168.81392002105713,169.813884973526,,,,,,,,,,,,,,,,,,,,,,,,,,,,,,,,,,,,,,,,,07,02,English,B1,True,False,True,False,False,True,True,True,True,True,True,True,No,2,No,No,No,No,2020_Jul_22_1045,nibs_stage_1,3.2.3,60.0247007926865,
2,0,2,0,4,0,4,0,,,,,,,,,,,,,,,,,,,,,,172.83136701583862,None,172.83119220733641,174.83082103729248,174.21420283317565,None,177.61438198089598,None,179.01454181671141,189.01496195793152,189.41498489379882,None,190.81498289108276,191.8151240348816,,,,,,,,,,,,,,,,,,,,,,,,,,,,,,,,,,,,,,,,,07,02,English,B1,True,False,True,False,False,True,True,True,True,True,True,True,No,2,No,No,No,No,2020_Jul_22_1045,nibs_stage_1,3.2.3,60.0247007926865,
2,0,2,0,5,0,5,0,,,,,,,,,,,,,,,,,,,,,,194.8487138748169,194.8487138748169,194.8323492527008,196.8320369720459,196.23193688392638,None,199.63218898773192,None,201.03225989341735,211.03277397155762,211.43279786109923,212.43277192115784,212.83288598060608,213.83293294906616,,,,,,,,,,,,,,,,,,,,,,,,,,,,,,,,,,,,,,,,,07,02,English,B1,True,False,True,False,False,True,True,True,True,True,True,True,No,2,No,No,No,No,2020_Jul_22_1045,nibs_stage_1,3.2.3,60.0247007926865,
2,0,2,0,6,0,6,0,,,,,,,,,,,,,,,,,,,,,,216.86698198318481,None,216.8501841545105,218.85002207756042,218.23313875198363,None,221.6333379268646,None,223.03352279663085,233.03392696380615,233.43394083976744,None,234.8340358734131,235.83408093452454,,,,,,,,,,,,,,,,,,,,,,,,,,,,,,,,,,,,,,,,,07,02,English,B1,True,False,True,False,False,True,True,True,True,True,True,True,No,2,No,No,No,No,2020_Jul_22_1045,nibs_stage_1,3.2.3,60.0247007926865,
2,0,2,0,7,0,7,0,,,,,,,,,,,,,,,,,,,,,,238.88428688049316,None,238.8679482460022,240.86766290664673,240.25096077919005,243.25112795829773,243.65112586021422,None,245.05155582427977,255.0519859790802,255.4520089149475,256.452024936676,256.8520438671112,257.8522379398346,,,,,,,,,,,,,,,,,,,,,,,,,,,,,,,,,,,,,,,,,07,02,English,B1,True,False,True,False,False,True,True,True,True,True,True,True,No,2,No,No,No,No,2020_Jul_22_1045,nibs_stage_1,3.2.3,60.0247007926865,
2,0,2,0,8,0,8,0,,,,,,,,,,,,,,,,,,,,,,260.90246987342834,None,260.8860122680664,262.88570499420166,262.2690138339996,265.2691340446472,265.6691698551178,None,267.06917090415953,277.0704469680786,277.46979875564574,None,278.86980986595154,279.8699309825897,,,,,,,,,,,,,,,,,,,,,,,,,,,,,,,,,,,,,,,,,07,02,English,B1,True,False,True,False,False,True,True,True,True,True,True,True,No,2,No,No,No,No,2020_Jul_22_1045,nibs_stage_1,3.2.3,60.0247007926865,
2,0,2,0,9,0,9,0,,,,,,,,,,,,,,,,,,,,,,282.92085790634155,None,282.90382928848265,284.9035449028015,284.2867087841034,287.2869989871979,287.6870309829712,None,289.0870449066162,299.0874810218811,299.4878129482269,None,300.88768792152405,301.887748003006,,,,,,,,,,,,,,,,,,,,,,,,,,,,,,,,,,,,,,,,,07,02,English,B1,True,False,True,False,False,True,True,True,True,True,True,True,No,2,No,No,No,No,2020_Jul_22_1045,nibs_stage_1,3.2.3,60.0247007926865,
2,0,2,0,10,0,10,0,,,,,,,,,,,,,,,,,,,,,,304.93815898895264,None,304.92156929969786,306.9213020801544,306.30465788841246,None,309.7049479007721,None,311.10488481521605,321.1054639816284,321.50533695220946,322.50546193122864,322.905464887619,323.9056100845337,,,,,,,,,,,,,,,,,,,,,,,,,,,,,,,,,,,,,,,,,07,02,English,B1,True,False,True,False,False,True,True,True,True,True,True,True,No,2,No,No,No,No,2020_Jul_22_1045,nibs_stage_1,3.2.3,60.0247007926865,
2,0,2,0,11,0,11,0,,,,,,,,,,,,,,,,,,,,,,326.95621490478516,None,326.9394161224365,328.9390330314636,328.3224398612976,None,331.7226249694824,None,333.12270493507384,343.12318301200867,343.5232238292694,344.5232870578766,344.92329502105713,345.92327404022217,,,,,,,,,,,,,,,,,,,,,,,,,,,,,,,,,,,,,,,,,07,02,English,B1,True,False,True,False,False,True,True,True,True,True,True,True,No,2,No,No,No,No,2020_Jul_22_1045,nibs_stage_1,3.2.3,60.0247007926865,
2,0,2,0,12,0,12,0,,,,,,,,,,,,,,,,,,,,,,348.973445892334,None,348.9572202682495,350.95693802833557,350.3401648521423,353.3404109477997,353.74038190841674,354.74047589302063,355.140465927124,365.14136600494385,365.54125995635985,366.5410568714142,366.9414119720459,367.9411430358887,,,,,,,,,,,,,,,,,,,,,,,,,,,,,,,,,,,,,,,,,07,02,English,B1,True,False,True,False,False,True,True,True,True,True,True,True,No,2,No,No,No,No,2020_Jul_22_1045,nibs_stage_1,3.2.3,60.0247007926865,
2,0,2,0,13,0,13,0,,,,,,,,,,,,,,,,,,,,,,370.99208903312683,None,370.9750673294067,372.9749300479889,372.35809082984923,None,375.75812978744506,None,377.1583258628845,387.1587460041046,387.55905385017394,None,388.95888900756836,389.95895195007324,,,,,,,,,,,,,,,,,,,,,,,,,,,,,,,,,,,,,,,,,07,02,English,B1,True,False,True,False,False,True,True,True,True,True,True,True,No,2,No,No,No,No,2020_Jul_22_1045,nibs_stage_1,3.2.3,60.0247007926865,
2,0,2,0,14,0,14,0,,,,,,,,,,,,,,,,,,,,,,393.00987100601196,None,392.99278421401976,394.99261498451233,394.3758859157562,None,397.7761489868164,None,399.1760899543762,409.1766269207001,409.5766667842865,410.5767300128937,410.976891040802,411.97707986831665,,,,,,,,,,,,,,,,,,,,,,,,,,,,,,,,,,,,,,,,,07,02,English,B1,True,False,True,False,False,True,True,True,True,True,True,True,No,2,No,No,No,No,2020_Jul_22_1045,nibs_stage_1,3.2.3,60.0247007926865,
2,0,2,0,,,,,0,0,0,0,0,0,0,0,,,,,,,,,,,,,,,,,,,,,,,,,,,,622.4374580383301,None," - Task: Keep seated and relaxed with either      
             opening or closing eyes                  
 - Beep sound with decreasing pitch: Block finish 
",622.4374580383301,None,622.4211951732636,None,"Please keep relaxed and close your eyes.
",645.4717960357666,825.4808609485626,828.8479490280151,None,856.3660860061646,None," - Task: Listen to the question& Speak out answer 
 - Melodious beep sound: Trial start              
 - Silent sound (blank): censored word            
 - Beep sound with increasing pitch: Rec. start   
 - Beep sound with decreasing pitch: Rec. finish  
",856.3660860061646,None,856.3496939659119,None,895.7510759830475,None,Listen to the question and speak out your answer!,898.8348250389099,None,898.8185137748719,900.8182549476624,Wir essen Salat oft ungekocht.,essen,900.20155377388,None,902.8517748832703,903.8517169952393,915.4023208141327,916.4023950099945,916.8025770187378,917.8024270534515,./data/Subject_07/Session_02/Exp_data/2020_Jul_22_1045/rec_QA_run_02_block_000_trial_000.wav,,,,07,02,English,B1,True,False,True,False,False,True,True,True,True,True,True,True,No,2,No,No,No,No,2020_Jul_22_1045,nibs_stage_1,3.2.3,60.0247007926865,
2,0,2,0,,,,,0,0,0,0,1,0,1,0,,,,,,,,,,,,,,,,,,,,,,,,,,,,,,,,,,,,,,,,,,,,,,,,,Listen to the question and speak out your answer!,919.8530640602112,None,919.8529690742494,921.8528270721436,Ich entschuldige bitte meine Verspätung.,entschuldige,921.2361549854279,923.5527889728546,923.9695939540863,None,936.4367379665375,None,937.8368389606476,938.8368599414825,./data/Subject_07/Session_02/Exp_data/2020_Jul_22_1045/rec_QA_run_02_block_000_trial_001.wav,,,,07,02,English,B1,True,False,True,False,False,True,True,True,True,True,True,True,No,2,No,No,No,No,2020_Jul_22_1045,nibs_stage_1,3.2.3,60.0247007926865,
2,0,2,0,,,,,0,0,0,0,2,0,2,0,,,,,,,,,,,,,,,,,,,,,,,,,,,,,,,,,,,,,,,,,,,,,,,,,Listen to the question and speak out your answer!,940.8868908882141,None,940.8707090854646,942.8703980445862,Die Zugvögel fliegen von Norden nach Süden,fliegen,942.2538859367371,None,945.5371899127961,946.5375368595123,957.4544829845429,None,958.854728937149,959.8545858860016,./data/Subject_07/Session_02/Exp_data/2020_Jul_22_1045/rec_QA_run_02_block_000_trial_002.wav,,,,07,02,English,B1,True,False,True,False,False,True,True,True,True,True,True,True,No,2,No,No,No,No,2020_Jul_22_1045,nibs_stage_1,3.2.3,60.0247007926865,
2,0,2,0,,,,,0,0,0,0,3,0,3,0,,,,,,,,,,,,,,,,,,,,,,,,,,,,,,,,,,,,,,,,,,,,,,,,,Listen to the question and speak out your answer!,961.9215669631958,None,961.905098104477,963.9045488834381,"Wenn Sie mit dem Vertrag nicht zufrieden sind, können Sie ihn vor seinem Ablauf kündigen.",kündigen,963.3044569015503,968.0216839313507,968.4385749816895,None,978.505550813675,None,979.9056360721588,980.9058170318604,./data/Subject_07/Session_02/Exp_data/2020_Jul_22_1045/rec_QA_run_02_block_000_trial_003.wav,,,,07,02,English,B1,True,False,True,False,False,True,True,True,True,True,True,True,No,2,No,No,No,No,2020_Jul_22_1045,nibs_stage_1,3.2.3,60.0247007926865,
2,0,2,0,,,,,0,0,0,0,4,0,4,0,,,,,,,,,,,,,,,,,,,,,,,,,,,,,,,,,,,,,,,,,,,,,,,,,Listen to the question and speak out your answer!,982.955659866333,None,982.9396661758424,984.938905954361,Peter interessiert sich sehr für Geschichte.,interessiert,984.3389589309693,None,987.4557878494263,None,999.5402109146119,None,1000.940092086792,1001.9400749206543,./data/Subject_07/Session_02/Exp_data/2020_Jul_22_1045/rec_QA_run_02_block_000_trial_004.wav,,,,07,02,English,B1,True,False,True,False,False,True,True,True,True,True,True,True,No,2,No,No,No,No,2020_Jul_22_1045,nibs_stage_1,3.2.3,60.0247007926865,
2,0,2,0,,,,,0,0,0,0,5,0,5,0,,,,,,,,,,,,,,,,,,,,,,,,,,,,,,,,,,,,,,,,,,,,,,,,,Listen to the question and speak out your answer!,1003.9900460243225,None,1003.9739240646363,1005.9732990264893,Ich gehe gerne alles in dem Geschäft um die Ecke einkaufen.,einkaufen,1005.373467874527,1008.7903709411621,1009.2070998668671,None,1020.574473810196,None,1021.9743568897247,1022.974494934082,./data/Subject_07/Session_02/Exp_data/2020_Jul_22_1045/rec_QA_run_02_block_000_trial_005.wav,,,,07,02,English,B1,True,False,True,False,False,True,True,True,True,True,True,True,No,2,No,No,No,No,2020_Jul_22_1045,nibs_stage_1,3.2.3,60.0247007926865,
2,0,2,0,,,,,0,0,0,0,6,0,6,0,,,,,,,,,,,,,,,,,,,,,,,,,,,,,,,,,,,,,,,,,,,,,,,,,Listen to the question and speak out your answer!,1025.0245289802551,None,1025.008344078064,1027.0078129768372,Zum Geburtstag hat ihm Oma ein Buch mit vielen Bildern geschenkt.,geschenkt,1026.4077097892762,None,1030.6081218242646,1031.6082530021667,1041.608775806427,1042.608934879303,1043.0088250637054,1044.0088930130005,./data/Subject_07/Session_02/Exp_data/2020_Jul_22_1045/rec_QA_run_02_block_000_trial_006.wav,,,,07,02,English,B1,True,False,True,False,False,True,True,True,True,True,True,True,No,2,No,No,No,No,2020_Jul_22_1045,nibs_stage_1,3.2.3,60.0247007926865,
2,0,2,0,,,,,0,0,0,0,7,0,7,0,,,,,,,,,,,,,,,,,,,,,,,,,,,,,,,,,,,,,,,,,,,,,,,,,Listen to the question and speak out your answer!,1046.0595009326935,None,1046.0427421569825,1048.0422248840332,Die Wassermelone schmeckt sehr süß.,schmeckt,1047.4255277633667,1049.8423008918762,1050.2591487884522,None,1062.6262969493866,None,1064.0263528823853,1065.0265550613403,./data/Subject_07/Session_02/Exp_data/2020_Jul_22_1045/rec_QA_run_02_block_000_trial_007.wav,,,,07,02,English,B1,True,False,True,False,False,True,True,True,True,True,True,True,No,2,No,No,No,No,2020_Jul_22_1045,nibs_stage_1,3.2.3,60.0247007926865,
2,0,2,0,,,,,0,0,0,0,8,0,8,0,,,,,,,,,,,,,,,,,,,,,,,,,,,,,,,,,,,,,,,,,,,,,,,,,Listen to the question and speak out your answer!,1067.0938529968262,None,1067.0769762039185,1069.0765249729156,Ich will nicht mein ganzes Geld für ein neues Auto ausgeben.,ausgeben,1068.4599258422852,1071.9434490203857,1072.360122871399,None,1083.6607079029084,1084.660728931427,1085.0607919692993,1086.060749053955,./data/Subject_07/Session_02/Exp_data/2020_Jul_22_1045/rec_QA_run_02_block_000_trial_008.wav,,,,07,02,English,B1,True,False,True,False,False,True,True,True,True,True,True,True,No,2,No,No,No,No,2020_Jul_22_1045,nibs_stage_1,3.2.3,60.0247007926865,
2,0,2,0,,,,,0,0,0,0,9,0,9,0,,,,,,,,,,,,,,,,,,,,,,,,,,,,,,,,,,,,,,,,,,,,,,,,,Listen to the question and speak out your answer!,1088.1451308727264,None,1088.1280089378358,1090.127713918686,"Wenn das Klima immer wärmer wird, werden auch die Gletscher schmelzen.",schmelzen,1089.5111038208008,1093.278007030487,1093.6778878688813,None,1104.6951059818268,None,1106.0951960086823,1107.0952570438385,./data/Subject_07/Session_02/Exp_data/2020_Jul_22_1045/rec_QA_run_02_block_000_trial_009.wav,,,,07,02,English,B1,True,False,True,False,False,True,True,True,True,True,True,True,No,2,No,No,No,No,2020_Jul_22_1045,nibs_stage_1,3.2.3,60.0247007926865,
2,0,2,0,,,,,0,0,0,0,10,0,10,0,,,,,,,,,,,,,,,,,,,,,,,,,,,,,,,,,,,,,,,,,,,,,,,,,Listen to the question and speak out your answer!,1109.1619989871979,None,1109.145870113373,1111.1454520225525,Die schwarze Wolken werden Regen bringen.,bringen,1110.5454189300538,1112.9122049808502,1113.3288957595826,None,1125.7461049079895,1126.7462298870087,1127.1462578773499,1128.1463179588318,./data/Subject_07/Session_02/Exp_data/2020_Jul_22_1045/rec_QA_run_02_block_000_trial_010.wav,,,,07,02,English,B1,True,False,True,False,False,True,True,True,True,True,True,True,No,2,No,No,No,No,2020_Jul_22_1045,nibs_stage_1,3.2.3,60.0247007926865,
2,0,2,0,,,,,0,0,0,0,11,0,11,0,,,,,,,,,,,,,,,,,,,,,,,,,,,,,,,,,,,,,,,,,,,,,,,,,Listen to the question and speak out your answer!,1130.2150690555573,None,1130.1968379974367,1132.1965630054474,"Ich habe den Knopf gedrückt, um die Kaffeemaschine einzuschalten.",gedrückt,1131.5798398971558,None,1135.713380765915,1136.7133750915527,1146.7810828208924,None,1148.1810820102692,1149.181046962738,./data/Subject_07/Session_02/Exp_data/2020_Jul_22_1045/rec_QA_run_02_block_000_trial_011.wav,,,,07,02,English,B1,True,False,True,False,False,True,True,True,True,True,True,True,No,2,No,No,No,No,2020_Jul_22_1045,nibs_stage_1,3.2.3,60.0247007926865,
2,0,2,0,,,,,0,0,0,0,12,0,12,0,,,,,,,,,,,,,,,,,,,,,,,,,,,,,,,,,,,,,,,,,,,,,,,,,Listen to the question and speak out your answer!,1151.264417886734,None,1151.248416042328,1153.2477469444275,Ich arbeite normalerweise von Montag bis Freitag.,arbeite,1152.6311208724976,1155.981213092804,1156.3813759803772,None,1167.8320209503174,None,1169.2320699691772,1170.2322099208832,./data/Subject_07/Session_02/Exp_data/2020_Jul_22_1045/rec_QA_run_02_block_000_trial_012.wav,,,,07,02,English,B1,True,False,True,False,False,True,True,True,True,True,True,True,No,2,No,No,No,No,2020_Jul_22_1045,nibs_stage_1,3.2.3,60.0247007926865,
2,0,2,0,,,,,0,0,0,0,13,0,13,0,,,,,,,,,,,,,,,,,,,,,,,,,,,,,,,,,,,,,,,,,,,,,,,,,Listen to the question and speak out your answer!,1172.316083908081,None,1172.2993789672853,1174.2991080284119,Das Brot vom Bäcker schmeckt viel besser.,schmeckt,1173.6822218418122,1176.1822378635406,1176.6155659675599,None,1188.883124780655,1189.8831460475922,1190.2832310199738,1191.283117055893,./data/Subject_07/Session_02/Exp_data/2020_Jul_22_1045/rec_QA_run_02_block_000_trial_013.wav,,,,07,02,English,B1,True,False,True,False,False,True,True,True,True,True,True,True,No,2,No,No,No,No,2020_Jul_22_1045,nibs_stage_1,3.2.3,60.0247007926865,
2,0,2,0,,,,,0,0,0,0,14,0,14,0,,,,,,,,,,,,,,,,,,,,,,,,,,,,,,,,,,,,,,,,,,,,,,,,,Listen to the question and speak out your answer!,1193.3336999416351,None,1193.316937160492,1195.316675901413,Ich habe die Zitrone in Scheiben geschnitten.,geschnitten,1194.6998338222504,None,1197.6500827789307,None,1209.900779914856,None,1211.3007910251617,1212.3008360862732,./data/Subject_07/Session_02/Exp_data/2020_Jul_22_1045/rec_QA_run_02_block_000_trial_014.wav,,,,07,02,English,B1,True,False,True,False,False,True,True,True,True,True,True,True,No,2,No,No,No,No,2020_Jul_22_1045,nibs_stage_1,3.2.3,60.0247007926865,
2,0,2,0,,,,,0,0,0,0,15,0,15,0,,,,,,,,,,,,,,,,,,,,,,,,,,,,,,,,,,,,,,,,,,,,,,,,,Listen to the question and speak out your answer!,1214.3843050003052,None,1214.3680270671846,1216.367625951767,Sam glaubt an eine marxistische Weltanschauung.,glaubt,1215.7510468482972,1218.6344900131226,1219.0511769771576,None,1230.9517359256745,None,1232.3519339561462,1233.3685760498047,./data/Subject_07/Session_02/Exp_data/2020_Jul_22_1045/rec_QA_run_02_block_000_trial_015.wav,,,,07,02,English,B1,True,False,True,False,False,True,True,True,True,True,True,True,No,2,No,No,No,No,2020_Jul_22_1045,nibs_stage_1,3.2.3,60.0247007926865,
2,0,2,0,,,,,0,0,0,0,16,0,16,0,,,,,,,,,,,,,,,,,,,,,,,,,,,,,,,,,,,,,,,,,,,,,,,,,Listen to the question and speak out your answer!,1235.4351480007172,None,1235.4024251937867,1237.4021170139313,Ich habe meinen Sohn für den Kurs angemeldet.,angemeldet,1236.8020789146424,1239.4688930511475,1239.8855778694153,None,1252.0028948307038,None,1253.403079032898,1254.4030289649963,./data/Subject_07/Session_02/Exp_data/2020_Jul_22_1045/rec_QA_run_02_block_000_trial_016.wav,,,,07,02,English,B1,True,False,True,False,False,True,True,True,True,True,True,True,No,2,No,No,No,No,2020_Jul_22_1045,nibs_stage_1,3.2.3,60.0247007926865,
2,0,2,0,,,,,0,0,0,0,17,0,17,0,,,,,,,,,,,,,,,,,,,,,,,,,,,,,,,,,,,,,,,,,,,,,,,,,Listen to the question and speak out your answer!,1256.453113079071,None,1256.4368781089784,1258.4698848724365,Er kann fast so gut Fahrrad fahren wie sein älterer Bruder.,fahren,1257.8197729110718,None,1262.0199758529664,1263.0201170444489,1273.020655822754,1274.0206179618835,1274.4207029342651,1275.4207830429077,./data/Subject_07/Session_02/Exp_data/2020_Jul_22_1045/rec_QA_run_02_block_000_trial_017.wav,,,,07,02,English,B1,True,False,True,False,False,True,True,True,True,True,True,True,No,2,No,No,No,No,2020_Jul_22_1045,nibs_stage_1,3.2.3,60.0247007926865,
2,0,2,0,,,,,0,0,0,0,18,0,18,0,,,,,,,,,,,,,,,,,,,,,,,,,,,,,,,,,,,,,,,,,,,,,,,,,Listen to the question and speak out your answer!,1277.5042579174042,None,1277.4879799842836,1279.4875900745392,Die Abgase der Benzinmotoren werden die Luft verschmutzen.,verschmutzen,1278.871033859253,None,1282.8544609069825,None,1294.0881659507752,None,1295.471801996231,1296.4884400367737,./data/Subject_07/Session_02/Exp_data/2020_Jul_22_1045/rec_QA_run_02_block_000_trial_018.wav,,,,07,02,English,B1,True,False,True,False,False,True,True,True,True,True,True,True,No,2,No,No,No,No,2020_Jul_22_1045,nibs_stage_1,3.2.3,60.0247007926865,
2,0,2,0,,,,,0,0,0,0,19,0,19,0,,,,,,,,,,,,,,,,,,,,,,,,,,,,,,,,,,,,,,,,,,,,,,,,,Listen to the question and speak out your answer!,1298.5389468669891,None,1298.5222891807557,1300.5221030712128,Ein junges Ehepaar ist gerade in das neue Haus neben unserem eingezogen.,eingezogen,1299.9217128276825,1304.4552659988403,1304.8721007823945,None,1315.1392578601838,None,1316.556030035019,None,./data/Subject_07/Session_02/Exp_data/2020_Jul_22_1045/rec_QA_run_02_block_000_trial_019.wav,,,,07,02,English,B1,True,False,True,False,False,True,True,True,True,True,True,True,No,2,No,No,No,No,2020_Jul_22_1045,nibs_stage_1,3.2.3,60.0247007926865,
2,0,2,0,,,,,0,0,0,0,20,0,20,0,,,,,,,,,,,,,,,,,,,,,,,,,,,,,,,,,,,,,,,,,,,,,,,,,Listen to the question and speak out your answer!,1319.5909209251404,None,1319.5732129573823,1321.5895459651947,Ich beendete meine Arbeit und erhielt eine neue Aufgabe.,beendete,1320.972885799408,1324.7230830192566,1325.0730759620667,1326.0898170471191,1336.1403488636017,None,1337.5570480823517,1338.590430021286,./data/Subject_07/Session_02/Exp_data/2020_Jul_22_1045/rec_QA_run_02_block_000_trial_020.wav,,,,07,02,English,B1,True,False,True,False,False,True,True,True,True,True,True,True,No,2,No,No,No,No,2020_Jul_22_1045,nibs_stage_1,3.2.3,60.0247007926865,
2,0,2,0,,,,,0,0,0,0,21,0,21,0,,,,,,,,,,,,,,,,,,,,,,,,,,,,,,,,,,,,,,,,,,,,,,,,,Listen to the question and speak out your answer!,1340.6406919956207,None,1340.624279165268,1342.6406540870667,Er pflegte jeden Abend auf Pferden zu reiten und durch die Wälder zu gehen.,reiten,1342.024052810669,None,1346.8243929862977,1347.840914964676,1357.2247519016266,1358.2414560317993,1358.6414818763733,None,./data/Subject_07/Session_02/Exp_data/2020_Jul_22_1045/rec_QA_run_02_block_000_trial_021.wav,,,,07,02,English,B1,True,False,True,False,False,True,True,True,True,True,True,True,No,2,No,No,No,No,2020_Jul_22_1045,nibs_stage_1,3.2.3,60.0247007926865,
2,0,2,0,,,,,0,0,0,0,22,0,22,0,,,,,,,,,,,,,,,,,,,,,,,,,,,,,,,,,,,,,,,,,,,,,,,,,Listen to the question and speak out your answer!,1361.692244052887,None,1361.675306224823,1363.6917340755463,Ich musste heute Morgen richtig schnell nach der Busstation laufen.,laufen,1363.0750379085541,1366.9252479076385,1367.3087458133698,1368.325402021408,1378.275898885727,None,1379.692584991455,None,./data/Subject_07/Session_02/Exp_data/2020_Jul_22_1045/rec_QA_run_02_block_000_trial_022.wav,,,,07,02,English,B1,True,False,True,False,False,True,True,True,True,True,True,True,No,2,No,No,No,No,2020_Jul_22_1045,nibs_stage_1,3.2.3,60.0247007926865,
2,0,2,0,,,,,0,0,0,0,23,0,23,0,,,,,,,,,,,,,,,,,,,,,,,,,,,,,,,,,,,,,,,,,,,,,,,,,Listen to the question and speak out your answer!,1382.759486913681,None,1382.7265540599824,1384.759549856186,Wie hoch kosten der Wahren ？,kosten,1384.1428758621216,1385.9595329761505,1386.342984867096,1387.359680891037,1399.3436579227448,None,1400.7604110240936,None,./data/Subject_07/Session_02/Exp_data/2020_Jul_22_1045/rec_QA_run_02_block_000_trial_023.wav,,,,07,02,English,B1,True,False,True,False,False,True,True,True,True,True,True,True,No,2,No,No,No,No,2020_Jul_22_1045,nibs_stage_1,3.2.3,60.0247007926865,
2,0,2,0,,,,,0,0,0,0,24,0,24,0,,,,,,,,,,,,,,,,,,,,,,,,,,,,,,,,,,,,,,,,,,,,,,,,,Listen to the question and speak out your answer!,1403.7939610481262,None,1403.7775429248811,1405.7940390110016,Die Hausfrau muss jeden Tag Lebensmittel einkaufen.,einkaufen,1405.1771959781647,1408.3940529823303,1408.7441768169404,None,1420.37799782753,1421.3947160243988,1421.7947220802307,None,./data/Subject_07/Session_02/Exp_data/2020_Jul_22_1045/rec_QA_run_02_block_000_trial_024.wav,,,,07,02,English,B1,True,False,True,False,False,True,True,True,True,True,True,True,No,2,No,No,No,No,2020_Jul_22_1045,nibs_stage_1,3.2.3,60.0247007926865,
2,0,2,0,,,,,0,0,0,0,,,,,,,,,,,,,,,,,,,,,,,,,,,,,,,,,,,,,,,,,,1425.8451340198517,None,,,,,,,,,,,,,,,,,,,,,,,,,,,,,07,02,English,B1,True,False,True,False,False,True,True,True,True,True,True,True,No,2,No,No,No,No,2020_Jul_22_1045,nibs_stage_1,3.2.3,60.0247007926865,
2,0,2,0,,,,,1,0,1,0,0,0,0,0,,,,,,,,,,,,,,,,,,,,,,,,,,,,,,,,,,,,,,,,,,,,,,,,,Listen to the question and speak out your answer!,1440.0296349525452,None,1439.9962931632997,1442.0290930271149,Mit meinem Wagen kann ich nach Tibet reisen.,reisen,1441.4123789787293,None,1444.4125489711762,None,1456.613192987442,None,1458.0299139022827,None,./data/Subject_07/Session_02/Exp_data/2020_Jul_22_1045/rec_QA_run_02_block_001_trial_000.wav,,,,07,02,English,B1,True,False,True,False,False,True,True,True,True,True,True,True,No,2,No,No,No,No,2020_Jul_22_1045,nibs_stage_1,3.2.3,60.0247007926865,
2,0,2,0,,,,,1,0,1,0,1,0,1,0,,,,,,,,,,,,,,,,,,,,,,,,,,,,,,,,,,,,,,,,,,,,,,,,,Listen to the question and speak out your answer!,1461.0471289157867,None,1461.030520105362,1463.046835899353,"Ihm ist jedes Mittel recht, um sein Ziel zu erreichen.",erreichen,1462.4301399707795,None,1466.0970048427582,None,1477.6309277534485,1478.6476440429688,1479.0476129055023,None,./data/Subject_07/Session_02/Exp_data/2020_Jul_22_1045/rec_QA_run_02_block_001_trial_001.wav,,,,07,02,English,B1,True,False,True,False,False,True,True,True,True,True,True,True,No,2,No,No,No,No,2020_Jul_22_1045,nibs_stage_1,3.2.3,60.0247007926865,
2,0,2,0,,,,,1,0,1,0,2,0,2,0,,,,,,,,,,,,,,,,,,,,,,,,,,,,,,,,,,,,,,,,,,,,,,,,,Listen to the question and speak out your answer!,1482.1148228645325,None,1482.0982419013978,1484.114697933197,Wie feiern die Deutschen Weihnachten?,feiern,1483.4979049682618,None,1486.0646948337555,None,1498.6986817836762,None,1500.1154220104218,None,./data/Subject_07/Session_02/Exp_data/2020_Jul_22_1045/rec_QA_run_02_block_001_trial_002.wav,,,,07,02,English,B1,True,False,True,False,False,True,True,True,True,True,True,True,No,2,No,No,No,No,2020_Jul_22_1045,nibs_stage_1,3.2.3,60.0247007926865,
2,0,2,0,,,,,1,0,1,0,3,0,3,0,,,,,,,,,,,,,,,,,,,,,,,,,,,,,,,,,,,,,,,,,,,,,,,,,Listen to the question and speak out your answer!,1503.1494979858398,None,1503.11599817276,1505.1489238739014,Ich kann endlich den Namen dieser französischen Stadt aussprechen.,aussprechen,1504.5323078155518,1508.1491560935974,1508.532529783249,None,1519.733252954483,None,1521.149829864502,None,./data/Subject_07/Session_02/Exp_data/2020_Jul_22_1045/rec_QA_run_02_block_001_trial_003.wav,,,,07,02,English,B1,True,False,True,False,False,True,True,True,True,True,True,True,No,2,No,No,No,No,2020_Jul_22_1045,nibs_stage_1,3.2.3,60.0247007926865,
2,0,2,0,,,,,1,0,1,0,4,0,4,0,,,,,,,,,,,,,,,,,,,,,,,,,,,,,,,,,,,,,,,,,,,,,,,,,Listen to the question and speak out your answer!,1524.1836738586426,None,1524.1671160221101,1526.183441877365,Sebastian mag lieber ein schwarzes Brot mit Butter und Marmelade.,mag,1525.5333158493042,1529.7502899169922,1530.1669678211213,None,1540.7508608818055,None,1542.1675839424133,None,./data/Subject_07/Session_02/Exp_data/2020_Jul_22_1045/rec_QA_run_02_block_001_trial_004.wav,,,,07,02,English,B1,True,False,True,False,False,True,True,True,True,True,True,True,No,2,No,No,No,No,2020_Jul_22_1045,nibs_stage_1,3.2.3,60.0247007926865,
2,0,2,0,,,,,1,0,1,0,5,0,5,0,,,,,,,,,,,,,,,,,,,,,,,,,,,,,,,,,,,,,,,,,,,,,,,,,Listen to the question and speak out your answer!,1545.2180478572845,None,1545.2014750480653,1547.2178809642792,"Nachdem er nach dem Flugzeugunglück gerettet wurde, hat er an Gott geglaubt.",geglaubt,1546.601074886322,None,1551.401435804367,None,1561.8019349098206,None,1563.2186670303345,None,./data/Subject_07/Session_02/Exp_data/2020_Jul_22_1045/rec_QA_run_02_block_001_trial_005.wav,,,,07,02,English,B1,True,False,True,False,False,True,True,True,True,True,True,True,No,2,No,No,No,No,2020_Jul_22_1045,nibs_stage_1,3.2.3,60.0247007926865,
2,0,2,0,,,,,1,0,1,0,6,0,6,0,,,,,,,,,,,,,,,,,,,,,,,,,,,,,,,,,,,,,,,,,,,,,,,,,Listen to the question and speak out your answer!,1566.2854840755463,None,1566.2525621891023,1568.2855620384216,Der moderne Mensch ist ursprünglich aus Afrika gekommen.,gekommen,1567.6688937664032,None,1571.4690858840943,None,1582.8696779727936,None,1584.2864220142365,None,./data/Subject_07/Session_02/Exp_data/2020_Jul_22_1045/rec_QA_run_02_block_001_trial_006.wav,,,,07,02,English,B1,True,False,True,False,False,True,True,True,True,True,True,True,No,2,No,No,No,No,2020_Jul_22_1045,nibs_stage_1,3.2.3,60.0247007926865,
2,0,2,0,,,,,1,0,1,0,7,0,7,0,,,,,,,,,,,,,,,,,,,,,,,,,,,,,,,,,,,,,,,,,,,,,,,,,Listen to the question and speak out your answer!,1587.3037638664246,None,1587.2869860172273,1589.3033440113068,"Der Arzt hat mir empfohlen, auf Alkohol zu verzichten.",verzichten,1588.6865617752076,None,1592.6535207748414,1593.6701419353485,1603.8874029636384,None,1605.3041729927063,None,./data/Subject_07/Session_02/Exp_data/2020_Jul_22_1045/rec_QA_run_02_block_001_trial_007.wav,,,,07,02,English,B1,True,False,True,False,False,True,True,True,True,True,True,True,No,2,No,No,No,No,2020_Jul_22_1045,nibs_stage_1,3.2.3,60.0247007926865,
2,0,2,0,,,,,1,0,1,0,8,0,8,0,,,,,,,,,,,,,,,,,,,,,,,,,,,,,,,,,,,,,,,,,,,,,,,,,Listen to the question and speak out your answer!,1608.3711149692535,None,1608.3380650520326,1610.371090888977,Er kann mit den Händen an einem Baum hängen.,hängen,1609.7543229579926,None,1612.5212587833405,None,1624.9551839351655,None,1626.3720140457153,None,./data/Subject_07/Session_02/Exp_data/2020_Jul_22_1045/rec_QA_run_02_block_001_trial_008.wav,,,,07,02,English,B1,True,False,True,False,False,True,True,True,True,True,True,True,No,2,No,No,No,No,2020_Jul_22_1045,nibs_stage_1,3.2.3,60.0247007926865,
2,0,2,0,,,,,1,0,1,0,9,0,9,0,,,,,,,,,,,,,,,,,,,,,,,,,,,,,,,,,,,,,,,,,,,,,,,,,Listen to the question and speak out your answer!,1629.4054729938507,None,1629.3724941253663,1631.4055070877075,Ich schicke die Dateien als E-Mail-Anhang.,schicke,1630.7888068675995,None,1633.6889578819275,None,1645.9896077632905,1647.0063500404358,1647.4064490795135,None,./data/Subject_07/Session_02/Exp_data/2020_Jul_22_1045/rec_QA_run_02_block_001_trial_009.wav,,,,07,02,English,B1,True,False,True,False,False,True,True,True,True,True,True,True,No,2,No,No,No,No,2020_Jul_22_1045,nibs_stage_1,3.2.3,60.0247007926865,
2,0,2,0,,,,,1,0,1,0,10,0,10,0,,,,,,,,,,,,,,,,,,,,,,,,,,,,,,,,,,,,,,,,,,,,,,,,,Listen to the question and speak out your answer!,1650.4239099025726,None,1650.3902623176575,1652.4232699871063,Mit der Benzin wird der Motor des Autos angetrieben.,angetrieben,1651.7732238292695,None,1655.2735428333283,None,1666.9740108966828,None,1668.3906688690186,None,./data/Subject_07/Session_02/Exp_data/2020_Jul_22_1045/rec_QA_run_02_block_001_trial_010.wav,,,,07,02,English,B1,True,False,True,False,False,True,True,True,True,True,True,True,No,2,No,No,No,No,2020_Jul_22_1045,nibs_stage_1,3.2.3,60.0247007926865,
2,0,2,0,,,,,1,0,1,0,11,0,11,0,,,,,,,,,,,,,,,,,,,,,,,,,,,,,,,,,,,,,,,,,,,,,,,,,Listen to the question and speak out your answer!,1671.4414739608765,None,1671.4246472358705,1673.4410099983215,Während der Weihnachtszeit gibt es unter dem Weihnachtsbaum Geschenke für die Kinder.,gibt,1672.8243209838868,None,1677.791238975525,None,1688.0250699043274,None,1689.441817998886,None,./data/Subject_07/Session_02/Exp_data/2020_Jul_22_1045/rec_QA_run_02_block_001_trial_011.wav,,,,07,02,English,B1,True,False,True,False,False,True,True,True,True,True,True,True,No,2,No,No,No,No,2020_Jul_22_1045,nibs_stage_1,3.2.3,60.0247007926865,
2,0,2,0,,,,,1,0,1,0,12,0,12,0,,,,,,,,,,,,,,,,,,,,,,,,,,,,,,,,,,,,,,,,,,,,,,,,,Listen to the question and speak out your answer!,1692.492115020752,None,1692.4590801715851,1694.4920980930328,"Als das Spiel unentschieden endete, wurde es um zweimal 15 Minuten verlängert.",endete,1693.842059803009,None,1699.3423499584198,None,1709.042848777771,1710.0595920085907,1710.4596300125122,None,./data/Subject_07/Session_02/Exp_data/2020_Jul_22_1045/rec_QA_run_02_block_001_trial_012.wav,,,,07,02,English,B1,True,False,True,False,False,True,True,True,True,True,True,True,No,2,No,No,No,No,2020_Jul_22_1045,nibs_stage_1,3.2.3,60.0247007926865,
2,0,2,0,,,,,1,0,1,0,13,0,13,0,,,,,,,,,,,,,,,,,,,,,,,,,,,,,,,,,,,,,,,,,,,,,,,,,Listen to the question and speak out your answer!,1713.5266699790955,None,1713.4935051441194,1715.526515007019,"Um Omeltte zu machen, werde ich die Eier verrühren und dann braten.",braten,1714.9099118232728,None,1719.1767179489136,None,1730.1106159210206,None,1731.5273439884186,None,./data/Subject_07/Session_02/Exp_data/2020_Jul_22_1045/rec_QA_run_02_block_001_trial_013.wav,,,,07,02,English,B1,True,False,True,False,False,True,True,True,True,True,True,True,No,2,No,No,No,No,2020_Jul_22_1045,nibs_stage_1,3.2.3,60.0247007926865,
2,0,2,0,,,,,1,0,1,0,14,0,14,0,,,,,,,,,,,,,,,,,,,,,,,,,,,,,,,,,,,,,,,,,,,,,,,,,Listen to the question and speak out your answer!,1734.561467885971,None,1734.5279571056367,1736.561033964157,Sie brauchen ein ärztliches Zeugnis.,brauchen,1735.9442228794098,1738.3943569660187,1738.7444278717041,None,1751.1450209140778,None,1752.5617680549622,None,./data/Subject_07/Session_02/Exp_data/2020_Jul_22_1045/rec_QA_run_02_block_001_trial_014.wav,,,,07,02,English,B1,True,False,True,False,False,True,True,True,True,True,True,True,No,2,No,No,No,No,2020_Jul_22_1045,nibs_stage_1,3.2.3,60.0247007926865,
2,0,2,0,,,,,1,0,1,0,15,0,15,0,,,,,,,,,,,,,,,,,,,,,,,,,,,,,,,,,,,,,,,,,,,,,,,,,Listen to the question and speak out your answer!,1755.5967428684235,None,1755.5789900779725,1757.5953600406647,Wir müssen uns beeilen oder wir verpassen unseren Zug.,beeilen,1756.9786569595337,1760.3288888931274,1760.7121817588807,None,1772.179390859604,1773.1961538791656,1773.596179008484,None,./data/Subject_07/Session_02/Exp_data/2020_Jul_22_1045/rec_QA_run_02_block_001_trial_015.wav,,,,07,02,English,B1,True,False,True,False,False,True,True,True,True,True,True,True,No,2,No,No,No,No,2020_Jul_22_1045,nibs_stage_1,3.2.3,60.0247007926865,
2,0,2,0,,,,,1,0,1,0,16,0,16,0,,,,,,,,,,,,,,,,,,,,,,,,,,,,,,,,,,,,,,,,,,,,,,,,,Listen to the question and speak out your answer!,1776.6303570270538,None,1776.596745157242,1778.6301300525665,Wir haben einige sehr schöne Orte besucht.,besucht,1778.0130807876587,1780.696809053421,1781.0798987865448,None,1793.2138618946076,None,1794.6305210590363,None,./data/Subject_07/Session_02/Exp_data/2020_Jul_22_1045/rec_QA_run_02_block_001_trial_016.wav,,,,07,02,English,B1,True,False,True,False,False,True,True,True,True,True,True,True,No,2,No,No,No,No,2020_Jul_22_1045,nibs_stage_1,3.2.3,60.0247007926865,
2,0,2,0,,,,,1,0,1,0,17,0,17,0,,,,,,,,,,,,,,,,,,,,,,,,,,,,,,,,,,,,,,,,,,,,,,,,,Listen to the question and speak out your answer!,1797.6641829013824,None,1797.6312591075898,1799.6641910076141,Der Autohändler hat auf der Messe zehn Sportwagen eingekauft.,eingekauft,1799.014143896103,1802.7976958751678,1803.2143809318543,None,1814.214920949936,None,1815.6316800117493,None,./data/Subject_07/Session_02/Exp_data/2020_Jul_22_1045/rec_QA_run_02_block_001_trial_017.wav,,,,07,02,English,B1,True,False,True,False,False,True,True,True,True,True,True,True,No,2,No,No,No,No,2020_Jul_22_1045,nibs_stage_1,3.2.3,60.0247007926865,
2,0,2,0,,,,,1,0,1,0,18,0,18,0,,,,,,,,,,,,,,,,,,,,,,,,,,,,,,,,,,,,,,,,,,,,,,,,,Listen to the question and speak out your answer!,1818.6994030475616,None,1818.682255125046,1820.6988670825958,"Du kannst den Hund streicheln, er wird dich nicht beißen.",beißen,1820.0819408416749,1823.0989458560944,1823.4487387657166,None,1835.2826859474183,None,1836.6994349956512,None,./data/Subject_07/Session_02/Exp_data/2020_Jul_22_1045/rec_QA_run_02_block_001_trial_018.wav,,,,07,02,English,B1,True,False,True,False,False,True,True,True,True,True,True,True,No,2,No,No,No,No,2020_Jul_22_1045,nibs_stage_1,3.2.3,60.0247007926865,
2,0,2,0,,,,,1,0,1,0,19,0,19,0,,,,,,,,,,,,,,,,,,,,,,,,,,,,,,,,,,,,,,,,,,,,,,,,,Listen to the question and speak out your answer!,1839.7497069835663,None,1839.716666173935,1841.749715089798,"Mein Bruder hat uns zum Abendessen eingeladen, ich habe bereits zugesagt.",eingeladen,1841.1000217914582,None,1846.0999137878418,1847.1166169643402,1856.300466966629,None,1857.717169046402,None,./data/Subject_07/Session_02/Exp_data/2020_Jul_22_1045/rec_QA_run_02_block_001_trial_019.wav,,,,07,02,English,B1,True,False,True,False,False,True,True,True,True,True,True,True,No,2,No,No,No,No,2020_Jul_22_1045,nibs_stage_1,3.2.3,60.0247007926865,
2,0,2,0,,,,,1,0,1,0,20,0,20,0,,,,,,,,,,,,,,,,,,,,,,,,,,,,,,,,,,,,,,,,,,,,,,,,,Listen to the question and speak out your answer!,1860.784616947174,None,1860.7511180877686,1862.7841069698334,"Der Klima Schutz soll verhindern, dass es auf der Erde immer wärmer wird.",verhindern,1862.1674179553986,1866.317722082138,1866.7009679794312,None,1877.368195962906,None,1878.7849309444427,None,./data/Subject_07/Session_02/Exp_data/2020_Jul_22_1045/rec_QA_run_02_block_001_trial_020.wav,,,,07,02,English,B1,True,False,True,False,False,True,True,True,True,True,True,True,No,2,No,No,No,No,2020_Jul_22_1045,nibs_stage_1,3.2.3,60.0247007926865,
2,0,2,0,,,,,1,0,1,0,21,0,21,0,,,,,,,,,,,,,,,,,,,,,,,,,,,,,,,,,,,,,,,,,,,,,,,,,Listen to the question and speak out your answer!,1881.8351168632507,None,1881.8021529674531,1883.8351929187775,Jede Nacht muss ich den Kindern ein Märchen erzählen.,erzählen,1883.1851438999176,1886.2022268772125,1886.5853187561036,None,1898.402595949173,1899.4194269180298,1899.8193469047546,None,./data/Subject_07/Session_02/Exp_data/2020_Jul_22_1045/rec_QA_run_02_block_001_trial_021.wav,,,,07,02,English,B1,True,False,True,False,False,True,True,True,True,True,True,True,No,2,No,No,No,No,2020_Jul_22_1045,nibs_stage_1,3.2.3,60.0247007926865,
2,0,2,0,,,,,1,0,1,0,22,0,22,0,,,,,,,,,,,,,,,,,,,,,,,,,,,,,,,,,,,,,,,,,,,,,,,,,Listen to the question and speak out your answer!,1902.886188030243,None,1902.8532670974732,1904.8863129615784,Das Eingreifen des Lehrers beendete den Streit.,beendete,1904.2695729255677,1907.386393070221,1907.7697648525238,1908.786581993103,1919.4703709602356,1920.4870750904083,1920.8870990276337,None,./data/Subject_07/Session_02/Exp_data/2020_Jul_22_1045/rec_QA_run_02_block_001_trial_022.wav,,,,07,02,English,B1,True,False,True,False,False,True,True,True,True,True,True,True,No,2,No,No,No,No,2020_Jul_22_1045,nibs_stage_1,3.2.3,60.0247007926865,
2,0,2,0,,,,,1,0,1,0,23,0,23,0,,,,,,,,,,,,,,,,,,,,,,,,,,,,,,,,,,,,,,,,,,,,,,,,,Listen to the question and speak out your answer!,1923.9379739761353,None,1923.9043179512025,1925.9373569488525,Wir können das Fleisch grillen oder braten.,grillen,1925.2873527526856,1927.804219007492,1928.1874758720398,None,1940.4881219387055,None,1941.90491604805,None,./data/Subject_07/Session_02/Exp_data/2020_Jul_22_1045/rec_QA_run_02_block_001_trial_023.wav,,,,07,02,English,B1,True,False,True,False,False,True,True,True,True,True,True,True,No,2,No,No,No,No,2020_Jul_22_1045,nibs_stage_1,3.2.3,60.0247007926865,
2,0,2,0,,,,,1,0,1,0,24,0,24,0,,,,,,,,,,,,,,,,,,,,,,,,,,,,,,,,,,,,,,,,,,,,,,,,,Listen to the question and speak out your answer!,1944.989014863968,None,1944.9554430007936,1946.9884440898895,"Wenn ich mich gestresst fühle, muss ich mich selbst daran erinnern, ruhig zu bleiben.",erinnern,1946.3385848522187,None,1951.4386679649353,None,1961.53922290802,1962.5559449195862,1962.955862045288,None,./data/Subject_07/Session_02/Exp_data/2020_Jul_22_1045/rec_QA_run_02_block_001_trial_024.wav,,,,07,02,English,B1,True,False,True,False,False,True,True,True,True,True,True,True,No,2,No,No,No,No,2020_Jul_22_1045,nibs_stage_1,3.2.3,60.0247007926865,
2,0,2,0,,,,,1,0,1,0,,,,,,,,,,,,,,,,,,,,,,,,,,,,,,,,,,,,,,,,,,1967.0060908794403,None,,,,,,,,,,,,,,,,,,,,,,,,,,,,,07,02,English,B1,True,False,True,False,False,True,True,True,True,True,True,True,No,2,No,No,No,No,2020_Jul_22_1045,nibs_stage_1,3.2.3,60.0247007926865,
2,0,2,0,,,,,,,,,,,,,,,,,,,,,,,,,,,,,,,,,,,,,,,,,,,,,,,,,,,,,,,,,,,,,,,,,,,,,,,,,,,,,Please remain seated until further instruction via the earphone.,54.35818791389465,None,07,02,English,B1,True,False,True,False,False,True,True,True,True,True,True,True,No,2,No,No,No,No,2020_Jul_22_1045,nibs_stage_1,3.2.3,60.0247007926865,
