run.thisRepN,run.thisTrialN,run.thisN,run.thisIndex,QA_block.thisRepN,QA_block.thisTrialN,QA_block.thisN,QA_block.thisIndex,QA_trial.thisRepN,QA_trial.thisTrialN,QA_trial.thisN,QA_trial.thisIndex,fade_in_text.text,fade_in_text.started,fade_in_text.stopped,RS_intro_title.started,RS_intro_title.stopped,RS_intro_text.text,RS_intro_text.started,RS_intro_text.stopped,RS_intro_audio.started,RS_intro_audio.stopped,RS_rec_text.text,RS_rec_text.started,RS_rec_text.stopped,Pause_cont.started,Pause_cont.stopped,QA_intro_title.started,QA_intro_title.stopped,QA_intro_text.text,QA_intro_text.started,QA_intro_text.stopped,QA_intro_audio.started,QA_intro_audio.stopped,QA_intro_cont.started,QA_intro_cont.stopped,QA_rec_text.text,QA_rec_text.started,QA_rec_text.stopped,QA_rec_beep_hint.started,QA_rec_beep_hint.stopped,QA_rec_question.sen_text,QA_rec_question.cen_text,QA_rec_question.started,QA_rec_question.stopped,QA_rec_beep_start.started,QA_rec_beep_start.stopped,QA_rec_beep_end.started,QA_rec_beep_end.stopped,QA_rec_break.started,QA_rec_break.stopped,filename,participant,session,First language,German level,Full_screen,Instruction,Intro,Artifact,Cali_pre,Fade_in_out,Artifact_within,Resting_State,QA,Pause,Cali_post,End,Breakpoint_Cali_pre_trial,Breakpoint_Run,Breakpoint_RS_block,Breakpoint_QA_block,Breakpoint_QA_trial,Breakpoint_Cali_post_trial,date,expName,psychopyVersion,frameRate,
1,0,1,0,0,0,0,0,0,0,0,0,Please remain seated until further instruction via the earphone.,73.69704699516296,None,284.12527894973755,None," - Task: Keep seated and relaxed with either      
             opening or closing eyes                  
 - Beep sound with decreasing pitch: Block finish 
",284.12527894973755,None,284.11002764701846,None,"Please keep relaxed and close your eyes.
",307.1593179702759,487.16888403892517,490.5357279777527,None,505.3198981285095,545.3383500576019," - Task: Listen to the question& Speak out answer 
 - Melodious beep sound: Trial start              
 - Silent sound (blank): censored word            
 - Beep sound with increasing pitch: Rec. start   
 - Beep sound with decreasing pitch: Rec. finish  
",505.3198981285095,545.3383500576019,505.30593876838685,None,544.7049820423126,None,Listen to the question and speak out your answer!,549.8390309810638,None,549.8249708652496,551.8386199474335,Ich kann das Buch nirgends finden.,finden,551.2053492546081,None,553.4721351146698,None,566.4061601638793,567.4061839580536,567.806146144867,568.8062410354614,./data/Subject_07/Session_02/Exp_data/2020_Jul_22_1005/rec_QA_run_01_block_000_trial_000.wav,07,02,English,B1,True,False,True,False,False,True,True,True,True,True,True,True,No,1,No,No,No,No,2020_Jul_22_1005,nibs_stage_1,3.2.3,60.018602414879645,
1,0,1,0,0,0,0,0,1,0,1,0,,,,,,,,,,,,,,,,,,,,,,,,,Listen to the question and speak out your answer!,570.8735859394073,None,570.8584786415099,572.8733420372009,"Tut mir leid, darf ich fragen warum?",fragen,572.256442117691,574.7398900985718,575.1566031455993,None,587.4572442054748,None,588.8573191165924,589.8573479652405,./data/Subject_07/Session_02/Exp_data/2020_Jul_22_1005/rec_QA_run_01_block_000_trial_001.wav,07,02,English,B1,True,False,True,False,False,True,True,True,True,True,True,True,No,1,No,No,No,No,2020_Jul_22_1005,nibs_stage_1,3.2.3,60.018602414879645,
1,0,1,0,0,0,0,0,2,0,2,0,,,,,,,,,,,,,,,,,,,,,,,,,Listen to the question and speak out your answer!,591.9074280261993,None,591.8928085327148,593.9076709747314,Viele Indianer leben in Reservaten.,leben,593.2908921718597,596.0079979896545,596.4246740818023,597.424751996994,608.4919162273407,None,609.8918919563293,610.8920221328735,./data/Subject_07/Session_02/Exp_data/2020_Jul_22_1005/rec_QA_run_01_block_000_trial_002.wav,07,02,English,B1,True,False,True,False,False,True,True,True,True,True,True,True,No,1,No,No,No,No,2020_Jul_22_1005,nibs_stage_1,3.2.3,60.018602414879645,
1,0,1,0,0,0,0,0,3,0,3,0,,,,,,,,,,,,,,,,,,,,,,,,,Listen to the question and speak out your answer!,612.9427700042725,None,612.9274827003478,614.9424319267273,Ich kann nicht mit dem Auto fahren.,fahren,614.3257501602172,None,616.7425091743469,617.7427389621735,629.5263841629028,630.5263941287994,630.9264271259308,631.9263439178467,./data/Subject_07/Session_02/Exp_data/2020_Jul_22_1005/rec_QA_run_01_block_000_trial_003.wav,07,02,English,B1,True,False,True,False,False,True,True,True,True,True,True,True,No,1,No,No,No,No,2020_Jul_22_1005,nibs_stage_1,3.2.3,60.018602414879645,
1,0,1,0,0,0,0,0,4,0,4,0,,,,,,,,,,,,,,,,,,,,,,,,,Listen to the question and speak out your answer!,633.9599280357361,None,633.9451203823089,635.9599771499634,Ich muss mein Versprechen halten.,halten,635.3266292095184,None,637.6767540454864,None,650.527821111679,651.5274679660797,651.9443259239197,652.944258928299,./data/Subject_07/Session_02/Exp_data/2020_Jul_22_1005/rec_QA_run_01_block_000_trial_004.wav,07,02,English,B1,True,False,True,False,False,True,True,True,True,True,True,True,No,1,No,No,No,No,2020_Jul_22_1005,nibs_stage_1,3.2.3,60.018602414879645,
1,0,1,0,0,0,0,0,5,0,5,0,,,,,,,,,,,,,,,,,,,,,,,,,Listen to the question and speak out your answer!,654.994745016098,None,654.9797194957732,656.9944140911102,Dort an der Ampel kannst du die Straße überqueren.,überqueren,656.3777161121368,659.3612689971924,659.7612412452697,None,671.5786312103271,None,672.978728055954,673.978677034378,./data/Subject_07/Session_02/Exp_data/2020_Jul_22_1005/rec_QA_run_01_block_000_trial_005.wav,07,02,English,B1,True,False,True,False,False,True,True,True,True,True,True,True,No,1,No,No,No,No,2020_Jul_22_1005,nibs_stage_1,3.2.3,60.018602414879645,
1,0,1,0,0,0,0,0,6,0,6,0,,,,,,,,,,,,,,,,,,,,,,,,,Listen to the question and speak out your answer!,676.0454170703888,None,676.0308217048645,678.0455009937286,Zur Registrierung meines Kontos musste ich ein Formular ausfüllen.,ausfüllen,677.4122150421142,681.4623861312866,681.84572224617,682.8458070755005,692.6129482269287,693.6129231452942,694.0295560359955,695.0297341346741,./data/Subject_07/Session_02/Exp_data/2020_Jul_22_1005/rec_QA_run_01_block_000_trial_006.wav,07,02,English,B1,True,False,True,False,False,True,True,True,True,True,True,True,No,1,No,No,No,No,2020_Jul_22_1005,nibs_stage_1,3.2.3,60.018602414879645,
1,0,1,0,0,0,0,0,7,0,7,0,,,,,,,,,,,,,,,,,,,,,,,,,Listen to the question and speak out your answer!,697.0965399742126,None,697.0818788051605,699.1298501491547,Morgen werde ich eine Schularbeit schreiben.,schreiben,698.479945230484,700.9466941356659,701.3469381809234,None,713.6640892505645,None,715.0640621185303,716.0641989707947,./data/Subject_07/Session_02/Exp_data/2020_Jul_22_1005/rec_QA_run_01_block_000_trial_007.wav,07,02,English,B1,True,False,True,False,False,True,True,True,True,True,True,True,No,1,No,No,No,No,2020_Jul_22_1005,nibs_stage_1,3.2.3,60.018602414879645,
1,0,1,0,0,0,0,0,8,0,8,0,,,,,,,,,,,,,,,,,,,,,,,,,Listen to the question and speak out your answer!,718.1478741168976,None,718.1329967021942,720.1476521492004,Diesen Irrtum musste er teuer bezahlen.,bezahlen,719.531043100357,None,722.3145082473754,None,734.7318141937255,None,736.131875038147,737.1319680213928,./data/Subject_07/Session_02/Exp_data/2020_Jul_22_1005/rec_QA_run_01_block_000_trial_008.wav,07,02,English,B1,True,False,True,False,False,True,True,True,True,True,True,True,No,1,No,No,No,No,2020_Jul_22_1005,nibs_stage_1,3.2.3,60.018602414879645,
1,0,1,0,0,0,0,0,9,0,9,0,,,,,,,,,,,,,,,,,,,,,,,,,Listen to the question and speak out your answer!,739.1985790729523,None,739.1841126918792,741.198734998703,"Araber lieben es, auf den Märkten zu handeln.",handeln,740.5655010223388,743.382266998291,743.7823021888732,None,755.7496321678161,756.7496230602264,757.1496999263763,758.1496820449829,./data/Subject_07/Session_02/Exp_data/2020_Jul_22_1005/rec_QA_run_01_block_000_trial_009.wav,07,02,English,B1,True,False,True,False,False,True,True,True,True,True,True,True,No,1,No,No,No,No,2020_Jul_22_1005,nibs_stage_1,3.2.3,60.018602414879645,
1,0,1,0,0,0,0,0,10,0,10,0,,,,,,,,,,,,,,,,,,,,,,,,,Listen to the question and speak out your answer!,760.2161910533905,None,760.2018235206604,762.2331099510193,Sie fühlt sich während der Quarantäne sehr langweilig.,fühlt,761.5830181121826,764.8665080070496,765.2833500385284,766.2999000549316,776.7837260246276,None,778.2005319595337,None,./data/Subject_07/Session_02/Exp_data/2020_Jul_22_1005/rec_QA_run_01_block_000_trial_010.wav,07,02,English,B1,True,False,True,False,False,True,True,True,True,True,True,True,No,1,No,No,No,No,2020_Jul_22_1005,nibs_stage_1,3.2.3,60.018602414879645,
1,0,1,0,0,0,0,0,11,0,11,0,,,,,,,,,,,,,,,,,,,,,,,,,Listen to the question and speak out your answer!,781.2675449848175,None,781.2361126899718,783.2677240371704,Vater trägt den großen Rucksack auf dem Rücken.,trägt,782.650839138031,None,786.0176201343536,None,797.8349152088165,798.8515870571136,799.2516520023346,None,./data/Subject_07/Session_02/Exp_data/2020_Jul_22_1005/rec_QA_run_01_block_000_trial_011.wav,07,02,English,B1,True,False,True,False,False,True,True,True,True,True,True,True,No,1,No,No,No,No,2020_Jul_22_1005,nibs_stage_1,3.2.3,60.018602414879645,
1,0,1,0,0,0,0,0,12,0,12,0,,,,,,,,,,,,,,,,,,,,,,,,,Listen to the question and speak out your answer!,802.3187539577484,None,802.28714761734,804.3185861110687,Lenas Hund Tobi wird immer am Abend gefüttert.,gefüttert,803.7018681049346,None,807.0353971004486,808.0520989894867,818.9027011871337,819.9193871021271,820.3193991184235,None,./data/Subject_07/Session_02/Exp_data/2020_Jul_22_1005/rec_QA_run_01_block_000_trial_012.wav,07,02,English,B1,True,False,True,False,False,True,True,True,True,True,True,True,No,1,No,No,No,No,2020_Jul_22_1005,nibs_stage_1,3.2.3,60.018602414879645,
1,0,1,0,0,0,0,0,13,0,13,0,,,,,,,,,,,,,,,,,,,,,,,,,Listen to the question and speak out your answer!,823.3529341220856,None,823.3382905960083,825.3864300251007,"Wir entschieden uns dafür, mit dem Flugzeug nach Stockholm zu fliegen.",fliegen,824.7364120960235,None,829.369901227951,None,839.9372060775756,None,841.3539390563965,None,./data/Subject_07/Session_02/Exp_data/2020_Jul_22_1005/rec_QA_run_01_block_000_trial_013.wav,07,02,English,B1,True,False,True,False,False,True,True,True,True,True,True,True,No,1,No,No,No,No,2020_Jul_22_1005,nibs_stage_1,3.2.3,60.018602414879645,
1,0,1,0,0,0,0,0,14,0,14,0,,,,,,,,,,,,,,,,,,,,,,,,,Listen to the question and speak out your answer!,844.4209790229797,None,844.4061197280884,846.4542241096497,"Wenn es am Sonntag Morgen regnet, bleibt Franz den ganzen Tag im Bett.",bleibt,845.8041642189025,849.9542949199677,850.3377421379089,None,861.0049100399017,None,862.4216549396515,None,./data/Subject_07/Session_02/Exp_data/2020_Jul_22_1005/rec_QA_run_01_block_000_trial_014.wav,07,02,English,B1,True,False,True,False,False,True,True,True,True,True,True,True,No,1,No,No,No,No,2020_Jul_22_1005,nibs_stage_1,3.2.3,60.018602414879645,
1,0,1,0,0,0,0,0,15,0,15,0,,,,,,,,,,,,,,,,,,,,,,,,,Listen to the question and speak out your answer!,865.4562990665436,None,865.4405106544494,867.4885561466217,Sam hat gerade das Abitur bestanden und wird sich für die Universität Wien bewerben. ,bewerben,866.8385620594024,871.9887869358063,872.3720751285553,873.3886971473694,882.0392120361328,883.0558409690857,883.4559321403503,None,./data/Subject_07/Session_02/Exp_data/2020_Jul_22_1005/rec_QA_run_01_block_000_trial_015.wav,07,02,English,B1,True,False,True,False,False,True,True,True,True,True,True,True,No,1,No,No,No,No,2020_Jul_22_1005,nibs_stage_1,3.2.3,60.018602414879645,
1,0,1,0,0,0,0,0,16,0,16,0,,,,,,,,,,,,,,,,,,,,,,,,,Listen to the question and speak out your answer!,886.5395359992981,None,886.5081306934356,888.5394549369812,Er wird die Wurst mit Butter braten.,braten,887.9228380203247,890.0396909713745,890.3896310806274,891.4063301086426,903.1236012458801,904.1403019428253,904.5403020381927,None,./data/Subject_07/Session_02/Exp_data/2020_Jul_22_1005/rec_QA_run_01_block_000_trial_016.wav,07,02,English,B1,True,False,True,False,False,True,True,True,True,True,True,True,No,1,No,No,No,No,2020_Jul_22_1005,nibs_stage_1,3.2.3,60.018602414879645,
1,0,1,0,0,0,0,0,17,0,17,0,,,,,,,,,,,,,,,,,,,,,,,,,Listen to the question and speak out your answer!,907.5744271278381,None,907.5591806411743,909.6072270870209,"Da Elena arbeiten muss, überlässt sie ihre Kinder seiner Mutter.",überlässt,908.95731716156,None,913.0907562255859,914.1075150966644,924.1579680919647,None,925.5747051239014,None,./data/Subject_07/Session_02/Exp_data/2020_Jul_22_1005/rec_QA_run_01_block_000_trial_017.wav,07,02,English,B1,True,False,True,False,False,True,True,True,True,True,True,True,No,1,No,No,No,No,2020_Jul_22_1005,nibs_stage_1,3.2.3,60.018602414879645,
1,0,1,0,0,0,0,0,18,0,18,0,,,,,,,,,,,,,,,,,,,,,,,,,Listen to the question and speak out your answer!,928.6418271064758,None,928.6269155979156,930.6749529838562,Der Hotelier buchte zwei Übernachtungen für uns,buchte,930.0249422073364,None,933.7251301288604,None,945.225721168518,None,946.6424150466919,None,./data/Subject_07/Session_02/Exp_data/2020_Jul_22_1005/rec_QA_run_01_block_000_trial_018.wav,07,02,English,B1,True,False,True,False,False,True,True,True,True,True,True,True,No,1,No,No,No,No,2020_Jul_22_1005,nibs_stage_1,3.2.3,60.018602414879645,
1,0,1,0,0,0,0,0,19,0,19,0,,,,,,,,,,,,,,,,,,,,,,,,,Listen to the question and speak out your answer!,949.7101709842682,None,949.694608592987,951.7426559925079,Sie beantwortete meine E-Mail schnell.,beantwortete,951.0926280498504,None,953.9261191368103,None,966.2935262203216,None,967.7101490497589,None,./data/Subject_07/Session_02/Exp_data/2020_Jul_22_1005/rec_QA_run_01_block_000_trial_019.wav,07,02,English,B1,True,False,True,False,False,True,True,True,True,True,True,True,No,1,No,No,No,No,2020_Jul_22_1005,nibs_stage_1,3.2.3,60.018602414879645,
1,0,1,0,0,0,0,0,20,0,20,0,,,,,,,,,,,,,,,,,,,,,,,,,Listen to the question and speak out your answer!,970.7772090435028,None,970.7456816196441,972.7770719528198,Am Geburtstag hat mein Vater mir einen Geschenk geschenkt.,geschenkt,972.1604161739349,975.4773910045624,975.8605540275573,None,987.3611491203308,None,988.7778739929199,None,./data/Subject_07/Session_02/Exp_data/2020_Jul_22_1005/rec_QA_run_01_block_000_trial_020.wav,07,02,English,B1,True,False,True,False,False,True,True,True,True,True,True,True,No,1,No,No,No,No,2020_Jul_22_1005,nibs_stage_1,3.2.3,60.018602414879645,
1,0,1,0,0,0,0,0,21,0,21,0,,,,,,,,,,,,,,,,,,,,,,,,,Listen to the question and speak out your answer!,991.8120291233063,None,991.7800365447997,993.8114490509033,Ich gratuliere dir zum Abschluss mit höchster Auszeichnung. ,gratuliere,993.1947670459747,None,997.0949562072753,None,1008.3955221652984,1009.4122059345245,1009.8122251033783,None,./data/Subject_07/Session_02/Exp_data/2020_Jul_22_1005/rec_QA_run_01_block_000_trial_021.wav,07,02,English,B1,True,False,True,False,False,True,True,True,True,True,True,True,No,1,No,No,No,No,2020_Jul_22_1005,nibs_stage_1,3.2.3,60.018602414879645,
1,0,1,0,0,0,0,0,22,0,22,0,,,,,,,,,,,,,,,,,,,,,,,,,Listen to the question and speak out your answer!,1012.845997095108,None,1012.8311118125915,1014.8791689872742,"Ich drückte den Knopf, um den Computer einzuschalten.",drückte,1014.1958151340484,1017.5459771156311,1017.9627731323242,1018.9794290065765,1029.396508026123,None,1030.8132960796356,1031.8466250896454,./data/Subject_07/Session_02/Exp_data/2020_Jul_22_1005/rec_QA_run_01_block_000_trial_022.wav,07,02,English,B1,True,False,True,False,False,True,True,True,True,True,True,True,No,1,No,No,No,No,2020_Jul_22_1005,nibs_stage_1,3.2.3,60.018602414879645,
1,0,1,0,0,0,0,0,23,0,23,0,,,,,,,,,,,,,,,,,,,,,,,,,Listen to the question and speak out your answer!,1033.9141800403595,None,1033.8820856571197,1035.9135529994965,Das Experiment hat eine Woche lang gedauert.,gedauert,1035.2968881607055,1038.080600976944,1038.4303861141204,None,1050.4976780891418,None,1051.9144930839539,None,./data/Subject_07/Session_02/Exp_data/2020_Jul_22_1005/rec_QA_run_01_block_000_trial_023.wav,07,02,English,B1,True,False,True,False,False,True,True,True,True,True,True,True,No,1,No,No,No,No,2020_Jul_22_1005,nibs_stage_1,3.2.3,60.018602414879645,
1,0,1,0,0,0,0,0,24,0,24,0,,,,,,,,,,,,,,,,,,,,,,,,,Listen to the question and speak out your answer!,1054.9481549263,None,1054.9165636062621,1056.947951078415,Kannst du mir das mit einem konkreten Beispiel erklären?,erklären,1056.3312721729278,None,1059.931459236145,None,1071.5320721149444,1072.548658132553,1072.948734998703,None,./data/Subject_07/Session_02/Exp_data/2020_Jul_22_1005/rec_QA_run_01_block_000_trial_024.wav,07,02,English,B1,True,False,True,False,False,True,True,True,True,True,True,True,No,1,No,No,No,No,2020_Jul_22_1005,nibs_stage_1,3.2.3,60.018602414879645,
1,0,1,0,0,0,0,0,,,,,,,,,,,,,,,,,,1076.9656579494476,None,,,,,,,,,,,,,,,,,,,,,,,,,,07,02,English,B1,True,False,True,False,False,True,True,True,True,True,True,True,No,1,No,No,No,No,2020_Jul_22_1005,nibs_stage_1,3.2.3,60.018602414879645,
1,0,1,0,1,0,1,0,0,0,0,0,,,,,,,,,,,,,,,,,,,,,,,,,Listen to the question and speak out your answer!,1100.800241947174,None,1100.769850873947,1102.8001799583435,In der Vergangenheit war Berlin in zwei Hälften geteilt.,geteilt,1102.1835661411285,1105.5341079235077,1105.9170790195465,None,1117.3843682289123,None,1118.8010699748993,None,./data/Subject_07/Session_02/Exp_data/2020_Jul_22_1005/rec_QA_run_01_block_001_trial_000.wav,07,02,English,B1,True,False,True,False,False,True,True,True,True,True,True,True,No,1,No,No,No,No,2020_Jul_22_1005,nibs_stage_1,3.2.3,60.018602414879645,
1,0,1,0,1,0,1,0,1,0,1,0,,,,,,,,,,,,,,,,,,,,,,,,,Listen to the question and speak out your answer!,1121.8192319869995,None,1121.8032375335692,1123.85142993927,"Wie schmeckt Iris die Melone, die ich im Geschäft gekauft habe?",schmeckt,1123.2013850688934,None,1127.4682641506195,None,1138.4021580696106,None,1139.818890094757,None,./data/Subject_07/Session_02/Exp_data/2020_Jul_22_1005/rec_QA_run_01_block_001_trial_001.wav,07,02,English,B1,True,False,True,False,False,True,True,True,True,True,True,True,No,1,No,No,No,No,2020_Jul_22_1005,nibs_stage_1,3.2.3,60.018602414879645,
1,0,1,0,1,0,1,0,2,0,2,0,,,,,,,,,,,,,,,,,,,,,,,,,Listen to the question and speak out your answer!,1142.8857231140137,None,1142.8543685436248,1144.8857181072235,Im Herbst verfärben sich die Blätter gelb und fallen auf den Boden.,fallen,1144.2691331386566,1148.085979938507,1148.4694362163543,None,1159.4697850227356,None,1160.8866350650787,None,./data/Subject_07/Session_02/Exp_data/2020_Jul_22_1005/rec_QA_run_01_block_001_trial_002.wav,07,02,English,B1,True,False,True,False,False,True,True,True,True,True,True,True,No,1,No,No,No,No,2020_Jul_22_1005,nibs_stage_1,3.2.3,60.018602414879645,
1,0,1,0,1,0,1,0,3,0,3,0,,,,,,,,,,,,,,,,,,,,,,,,,Listen to the question and speak out your answer!,1163.9203009605408,None,1163.8887725830077,1165.92009806633,Durch die Klimaveränderung steigen die Temperaturen auf der Erde.,steigen,1165.3035061836242,None,1169.803650188446,None,1180.5041811943054,None,1181.9209289550781,None,./data/Subject_07/Session_02/Exp_data/2020_Jul_22_1005/rec_QA_run_01_block_001_trial_003.wav,07,02,English,B1,True,False,True,False,False,True,True,True,True,True,True,True,No,1,No,No,No,No,2020_Jul_22_1005,nibs_stage_1,3.2.3,60.018602414879645,
1,0,1,0,1,0,1,0,4,0,4,0,,,,,,,,,,,,,,,,,,,,,,,,,Listen to the question and speak out your answer!,1184.9387519359589,None,1184.9230786323546,1186.9711019992828,Der Mond scheint hell.,scheint,1186.321159172058,1187.7045340538025,1188.0879121303558,None,1201.538622188568,None,1202.9553260803223,None,./data/Subject_07/Session_02/Exp_data/2020_Jul_22_1005/rec_QA_run_01_block_001_trial_004.wav,07,02,English,B1,True,False,True,False,False,True,True,True,True,True,True,True,No,1,No,No,No,No,2020_Jul_22_1005,nibs_stage_1,3.2.3,60.018602414879645,
1,0,1,0,1,0,1,0,5,0,5,0,,,,,,,,,,,,,,,,,,,,,,,,,Listen to the question and speak out your answer!,1205.9557180404663,None,1205.940807390213,1207.988825082779,"Man nennt Klima-Wandel , dass die Temperaturen auf unserer Erde steigen.",steigen,1207.3389051437377,None,1212.1724710941314,1213.189171075821,1222.539644050598,None,1223.956372976303,None,./data/Subject_07/Session_02/Exp_data/2020_Jul_22_1005/rec_QA_run_01_block_001_trial_005.wav,07,02,English,B1,True,False,True,False,False,True,True,True,True,True,True,True,No,1,No,No,No,No,2020_Jul_22_1005,nibs_stage_1,3.2.3,60.018602414879645,
1,0,1,0,1,0,1,0,6,0,6,0,,,,,,,,,,,,,,,,,,,,,,,,,Listen to the question and speak out your answer!,1227.007206916809,None,1226.975314426422,1229.0066380500793,"Sie müssen mehr bezahlen, es fehlen noch ein paar Cent.",fehlen,1228.389975118637,1231.7401220798492,1232.123595046997,1233.140191078186,1243.5906770706176,1244.6074709892273,1245.007485151291,None,./data/Subject_07/Session_02/Exp_data/2020_Jul_22_1005/rec_QA_run_01_block_001_trial_006.wav,07,02,English,B1,True,False,True,False,False,True,True,True,True,True,True,True,No,1,No,No,No,No,2020_Jul_22_1005,nibs_stage_1,3.2.3,60.018602414879645,
1,0,1,0,1,0,1,0,7,0,7,0,,,,,,,,,,,,,,,,,,,,,,,,,Listen to the question and speak out your answer!,1248.0245850086212,None,1247.992946434021,1250.0243849754333,Meine Mutter erzählte mir immer eine Gutenachtgeschichte.,erzählte,1249.4076140403747,None,1253.1745691776275,None,1264.6084771633148,None,1266.02521109581,None,./data/Subject_07/Session_02/Exp_data/2020_Jul_22_1005/rec_QA_run_01_block_001_trial_007.wav,07,02,English,B1,True,False,True,False,False,True,True,True,True,True,True,True,No,1,No,No,No,No,2020_Jul_22_1005,nibs_stage_1,3.2.3,60.018602414879645,
1,0,1,0,1,0,1,0,8,0,8,0,,,,,,,,,,,,,,,,,,,,,,,,,Listen to the question and speak out your answer!,1269.0422430038452,None,1269.0274036884307,1271.0753769874573,"Ich ging zum Arzt, weil ich mich unangenehm fühlte.",fühlte,1270.425431060791,1273.609071969986,1273.9922771930694,None,1285.6261911869049,None,1287.042850971222,None,./data/Subject_07/Session_02/Exp_data/2020_Jul_22_1005/rec_QA_run_01_block_001_trial_008.wav,07,02,English,B1,True,False,True,False,False,True,True,True,True,True,True,True,No,1,No,No,No,No,2020_Jul_22_1005,nibs_stage_1,3.2.3,60.018602414879645,
1,0,1,0,1,0,1,0,9,0,9,0,,,,,,,,,,,,,,,,,,,,,,,,,Listen to the question and speak out your answer!,1290.0935080051422,None,1290.078506565094,1292.1265189647675,"Ich rechne fest damit, dass er kommt.",rechne,1291.476500082016,None,1294.2434151649475,None,1306.6772802352905,None,1308.093936920166,None,./data/Subject_07/Session_02/Exp_data/2020_Jul_22_1005/rec_QA_run_01_block_001_trial_009.wav,07,02,English,B1,True,False,True,False,False,True,True,True,True,True,True,True,No,1,No,No,No,No,2020_Jul_22_1005,nibs_stage_1,3.2.3,60.018602414879645,
1,0,1,0,1,0,1,0,10,0,10,0,,,,,,,,,,,,,,,,,,,,,,,,,Listen to the question and speak out your answer!,1311.144415140152,None,1311.1295095443725,1313.1775929927826,Das Zimmer kostet ein Hundert Euro pro Nacht.,kostet,1312.527587223053,1315.4110469818115,1315.7610641002655,1316.777760028839,1327.728376197815,None,1329.1450650691986,None,./data/Subject_07/Session_02/Exp_data/2020_Jul_22_1005/rec_QA_run_01_block_001_trial_010.wav,07,02,English,B1,True,False,True,False,False,True,True,True,True,True,True,True,No,1,No,No,No,No,2020_Jul_22_1005,nibs_stage_1,3.2.3,60.018602414879645,
1,0,1,0,1,0,1,0,11,0,11,0,,,,,,,,,,,,,,,,,,,,,,,,,Listen to the question and speak out your answer!,1332.1955499649048,None,1332.1805284976958,1334.2286450862885,"Ich kann dir gerne mein Fahrrad leihen, wenn du möchtest.",leihen,1333.57863407135,1336.6621170043945,1337.0454900741577,None,1348.7795341491699,None,1350.196121931076,None,./data/Subject_07/Session_02/Exp_data/2020_Jul_22_1005/rec_QA_run_01_block_001_trial_011.wav,07,02,English,B1,True,False,True,False,False,True,True,True,True,True,True,True,No,1,No,No,No,No,2020_Jul_22_1005,nibs_stage_1,3.2.3,60.018602414879645,
1,0,1,0,1,0,1,0,12,0,12,0,,,,,,,,,,,,,,,,,,,,,,,,,Listen to the question and speak out your answer!,1353.2467510700226,None,1353.231662607193,1355.2799351215363,Der Sturm entlaubte alle Bäume in unserem Garten.,entlaubte,1354.629721212387,1357.8465309143066,1358.196560192108,None,1369.8305891036987,None,1371.247237920761,None,./data/Subject_07/Session_02/Exp_data/2020_Jul_22_1005/rec_QA_run_01_block_001_trial_012.wav,07,02,English,B1,True,False,True,False,False,True,True,True,True,True,True,True,No,1,No,No,No,No,2020_Jul_22_1005,nibs_stage_1,3.2.3,60.018602414879645,
1,0,1,0,1,0,1,0,13,0,13,0,,,,,,,,,,,,,,,,,,,,,,,,,Listen to the question and speak out your answer!,1374.298063993454,None,1374.282710647583,1376.3308029174805,Das Fleisch wurde über dem offenen Feuer gegrillt.,gegrillt,1375.680841255188,None,1379.0809691429138,1380.0976929664612,1390.8815742015838,None,1392.2982850074768,None,./data/Subject_07/Session_02/Exp_data/2020_Jul_22_1005/rec_QA_run_01_block_001_trial_013.wav,07,02,English,B1,True,False,True,False,False,True,True,True,True,True,True,True,No,1,No,No,No,No,2020_Jul_22_1005,nibs_stage_1,3.2.3,60.018602414879645,
1,0,1,0,1,0,1,0,14,0,14,0,,,,,,,,,,,,,,,,,,,,,,,,,Listen to the question and speak out your answer!,1395.348895072937,None,1395.3338135242461,1397.3821430206299,Der Test dauert nur fünfzehn Minuten.,dauert,1396.73186211586,1399.1820080280304,1399.5653431892395,1400.582039117813,1411.9326410770416,1412.949345111847,1413.3493700027466,None,./data/Subject_07/Session_02/Exp_data/2020_Jul_22_1005/rec_QA_run_01_block_001_trial_014.wav,07,02,English,B1,True,False,True,False,False,True,True,True,True,True,True,True,No,1,No,No,No,No,2020_Jul_22_1005,nibs_stage_1,3.2.3,60.018602414879645,
1,0,1,0,1,0,1,0,15,0,15,0,,,,,,,,,,,,,,,,,,,,,,,,,Listen to the question and speak out your answer!,1416.400335073471,None,1416.38480553627,1418.4330549240112,Morgen werden wir um sieben Uhr aufstehen.,aufstehen,1417.783029127121,1420.3664820194244,1420.7497680664062,None,1432.983832168579,None,1434.4004521369934,None,./data/Subject_07/Session_02/Exp_data/2020_Jul_22_1005/rec_QA_run_01_block_001_trial_015.wav,07,02,English,B1,True,False,True,False,False,True,True,True,True,True,True,True,No,1,No,No,No,No,2020_Jul_22_1005,nibs_stage_1,3.2.3,60.018602414879645,
1,0,1,0,1,0,1,0,16,0,16,0,,,,,,,,,,,,,,,,,,,,,,,,,Listen to the question and speak out your answer!,1437.4339170455933,None,1437.419356393814,1439.467455148697,"Ich kenne dieses Wort nicht, was bedeutet es also?",bedeutet,1438.8173580646514,None,1442.4177241802215,1443.4343111515045,1454.0181301116943,None,1455.4349830150604,None,./data/Subject_07/Session_02/Exp_data/2020_Jul_22_1005/rec_QA_run_01_block_001_trial_016.wav,07,02,English,B1,True,False,True,False,False,True,True,True,True,True,True,True,No,1,No,No,No,No,2020_Jul_22_1005,nibs_stage_1,3.2.3,60.018602414879645,
1,0,1,0,1,0,1,0,17,0,17,0,,,,,,,,,,,,,,,,,,,,,,,,,Listen to the question and speak out your answer!,1458.4852550029755,None,1458.4706095218658,1460.5185251235962,"In der Therapie lernte er, mit Angst und Stress umzugehen.",umzugehen,1459.8685241222381,None,1463.73528008461,None,1475.0692141532897,1476.0858471393585,1476.485908985138,None,./data/Subject_07/Session_02/Exp_data/2020_Jul_22_1005/rec_QA_run_01_block_001_trial_017.wav,07,02,English,B1,True,False,True,False,False,True,True,True,True,True,True,True,No,1,No,No,No,No,2020_Jul_22_1005,nibs_stage_1,3.2.3,60.018602414879645,
1,0,1,0,1,0,1,0,18,0,18,0,,,,,,,,,,,,,,,,,,,,,,,,,Listen to the question and speak out your answer!,1479.5528519153595,None,1479.521445608139,1481.5528399944305,Darf ich mit einem Scheck bezahlen?,bezahlen,1480.9361501216888,None,1483.2029312133789,None,1496.13687210083,None,1497.553678035736,None,./data/Subject_07/Session_02/Exp_data/2020_Jul_22_1005/rec_QA_run_01_block_001_trial_018.wav,07,02,English,B1,True,False,True,False,False,True,True,True,True,True,True,True,No,1,No,No,No,No,2020_Jul_22_1005,nibs_stage_1,3.2.3,60.018602414879645,
1,0,1,0,1,0,1,0,19,0,19,0,,,,,,,,,,,,,,,,,,,,,,,,,Listen to the question and speak out your answer!,1500.5705120563507,None,1500.5391664981842,1502.570874929428,"Manchmal glaube ich, ich bin zu pessimistisch.",glaube,1501.953923034668,None,1505.3207622051239,None,1517.1547611236572,1518.1714220046997,1518.5715420246124,None,./data/Subject_07/Session_02/Exp_data/2020_Jul_22_1005/rec_QA_run_01_block_001_trial_019.wav,07,02,English,B1,True,False,True,False,False,True,True,True,True,True,True,True,No,1,No,No,No,No,2020_Jul_22_1005,nibs_stage_1,3.2.3,60.018602414879645,
1,0,1,0,1,0,1,0,20,0,20,0,,,,,,,,,,,,,,,,,,,,,,,,,Listen to the question and speak out your answer!,1521.5897459983826,None,1521.573613500595,1523.6216781139374,Ich habe gestern Abend mit meiner Mutter geredet.,geredet,1522.97165517807,None,1526.238507080078,None,1538.1724570274353,None,1539.5891470909119,None,./data/Subject_07/Session_02/Exp_data/2020_Jul_22_1005/rec_QA_run_01_block_001_trial_020.wav,07,02,English,B1,True,False,True,False,False,True,True,True,True,True,True,True,No,1,No,No,No,No,2020_Jul_22_1005,nibs_stage_1,3.2.3,60.018602414879645,
1,0,1,0,1,0,1,0,21,0,21,0,,,,,,,,,,,,,,,,,,,,,,,,,Listen to the question and speak out your answer!,1542.639564037323,None,1542.6246815681457,1544.67271900177,Können Sie mir auf Hundert Euro herausgeben?,herausgeben,1544.0227580547332,None,1547.1229620456695,None,1559.2234991073608,None,1560.6402349472046,None,./data/Subject_07/Session_02/Exp_data/2020_Jul_22_1005/rec_QA_run_01_block_001_trial_021.wav,07,02,English,B1,True,False,True,False,False,True,True,True,True,True,True,True,No,1,No,No,No,No,2020_Jul_22_1005,nibs_stage_1,3.2.3,60.018602414879645,
1,0,1,0,1,0,1,0,22,0,22,0,,,,,,,,,,,,,,,,,,,,,,,,,Listen to the question and speak out your answer!,1563.7071781158447,None,1563.6757496356963,1565.7071840763092,"Zu den hundeartigen Tieren, die in Österreich leben, gehört der Wolf.",gehört,1565.0905180454254,1569.507355928421,1569.8907330513,None,1580.291285085678,1581.3079731464386,1581.707993030548,None,./data/Subject_07/Session_02/Exp_data/2020_Jul_22_1005/rec_QA_run_01_block_001_trial_022.wav,07,02,English,B1,True,False,True,False,False,True,True,True,True,True,True,True,No,1,No,No,No,No,2020_Jul_22_1005,nibs_stage_1,3.2.3,60.018602414879645,
1,0,1,0,1,0,1,0,23,0,23,0,,,,,,,,,,,,,,,,,,,,,,,,,Listen to the question and speak out your answer!,1584.725744009018,None,1584.7101706027984,1586.7583501338959,Ich surfe gern im Internet und chatte mit Freunden.,chatte,1586.108214187622,None,1589.641845035553,None,1601.3090000629425,None,1602.7257280349731,None,./data/Subject_07/Session_02/Exp_data/2020_Jul_22_1005/rec_QA_run_01_block_001_trial_023.wav,07,02,English,B1,True,False,True,False,False,True,True,True,True,True,True,True,No,1,No,No,No,No,2020_Jul_22_1005,nibs_stage_1,3.2.3,60.018602414879645,
1,0,1,0,1,0,1,0,24,0,24,0,,,,,,,,,,,,,,,,,,,,,,,,,Listen to the question and speak out your answer!,1605.7768490314484,None,1605.7612465381621,1607.8093280792236,Nur mit der Fahrkarte kann man einsteigen.,einsteigen,1607.1593280315399,None,1610.026228237152,None,1622.3600972175598,None,1623.7767391204834,None,./data/Subject_07/Session_02/Exp_data/2020_Jul_22_1005/rec_QA_run_01_block_001_trial_024.wav,07,02,English,B1,True,False,True,False,False,True,True,True,True,True,True,True,No,1,No,No,No,No,2020_Jul_22_1005,nibs_stage_1,3.2.3,60.018602414879645,
