run.thisRepN,run.thisTrialN,run.thisN,run.thisIndex,QA_block.thisRepN,QA_block.thisTrialN,QA_block.thisN,QA_block.thisIndex,QA_trial.thisRepN,QA_trial.thisTrialN,QA_trial.thisN,QA_trial.thisIndex,post_trial.thisRepN,post_trial.thisTrialN,post_trial.thisN,post_trial.thisIndex,Cali_de_post_rec_text.text,Cali_de_post_rec_text.started,Cali_de_post_rec_text.stopped,Cali_de_post_rec_beep_hint.started,Cali_de_post_rec_beep_hint.stopped,Cali_de_post_rec_question_text.text,Cali_de_post_rec_question_text.started,Cali_de_post_rec_question_text.stopped,Cali_de_post_rec_beep_start.started,Cali_de_post_rec_beep_start.stopped,Cali_de_post_rec_beep_end.started,Cali_de_post_rec_beep_end.stopped,Cali_de_post_rec_break.started,Cali_de_post_rec_break.stopped,filename,the_end_text.started,the_end_text.stopped,the_end_text.text,participant,session,First language,German level,Full_screen,Instruction,Intro,Artifact,Cali_pre,Fade_in_out,Artifact_within,Resting_State,QA,Pause,Cali_post,End,Breakpoint_Cali_pre_trial,Breakpoint_Run,Breakpoint_RS_block,Breakpoint_QA_block,Breakpoint_QA_trial,Breakpoint_Cali_post_trial,date,expName,psychopyVersion,frameRate,
0,0,0,0,0,0,0,0,,,,,,,,,,,,,,,,,,,,,,,,,,,07,02,English,B1,True,False,False,False,False,False,False,False,False,False,True,True,No,No,No,No,No,No,2020_Jul_22_1151,nibs_stage_1,3.2.3,59.97363296051521,
0,0,0,0,1,0,1,0,,,,,,,,,,,,,,,,,,,,,,,,,,,07,02,English,B1,True,False,False,False,False,False,False,False,False,False,True,True,No,No,No,No,No,No,2020_Jul_22_1151,nibs_stage_1,3.2.3,59.97363296051521,
0,0,0,0,,,,,,,,,,,,,,,,,,,,,,,,,,,,,,,07,02,English,B1,True,False,False,False,False,False,False,False,False,False,True,True,No,No,No,No,No,No,2020_Jul_22_1151,nibs_stage_1,3.2.3,59.97363296051521,
1,0,1,0,0,0,0,0,,,,,,,,,,,,,,,,,,,,,,,,,,,07,02,English,B1,True,False,False,False,False,False,False,False,False,False,True,True,No,No,No,No,No,No,2020_Jul_22_1151,nibs_stage_1,3.2.3,59.97363296051521,
1,0,1,0,1,0,1,0,,,,,,,,,,,,,,,,,,,,,,,,,,,07,02,English,B1,True,False,False,False,False,False,False,False,False,False,True,True,No,No,No,No,No,No,2020_Jul_22_1151,nibs_stage_1,3.2.3,59.97363296051521,
1,0,1,0,,,,,,,,,,,,,,,,,,,,,,,,,,,,,,,07,02,English,B1,True,False,False,False,False,False,False,False,False,False,True,True,No,No,No,No,No,No,2020_Jul_22_1151,nibs_stage_1,3.2.3,59.97363296051521,
2,0,2,0,0,0,0,0,,,,,,,,,,,,,,,,,,,,,,,,,,,07,02,English,B1,True,False,False,False,False,False,False,False,False,False,True,True,No,No,No,No,No,No,2020_Jul_22_1151,nibs_stage_1,3.2.3,59.97363296051521,
2,0,2,0,1,0,1,0,,,,,,,,,,,,,,,,,,,,,,,,,,,07,02,English,B1,True,False,False,False,False,False,False,False,False,False,True,True,No,No,No,No,No,No,2020_Jul_22_1151,nibs_stage_1,3.2.3,59.97363296051521,
2,0,2,0,,,,,,,,,,,,,,,,,,,,,,,,,,,,,,,07,02,English,B1,True,False,False,False,False,False,False,False,False,False,True,True,No,No,No,No,No,No,2020_Jul_22_1151,nibs_stage_1,3.2.3,59.97363296051521,
3,0,3,0,0,0,0,0,,,,,,,,,,,,,,,,,,,,,,,,,,,07,02,English,B1,True,False,False,False,False,False,False,False,False,False,True,True,No,No,No,No,No,No,2020_Jul_22_1151,nibs_stage_1,3.2.3,59.97363296051521,
3,0,3,0,1,0,1,0,,,,,,,,,,,,,,,,,,,,,,,,,,,07,02,English,B1,True,False,False,False,False,False,False,False,False,False,True,True,No,No,No,No,No,No,2020_Jul_22_1151,nibs_stage_1,3.2.3,59.97363296051521,
3,0,3,0,,,,,,,,,,,,,,,,,,,,,,,,,,,,,,,07,02,English,B1,True,False,False,False,False,False,False,False,False,False,True,True,No,No,No,No,No,No,2020_Jul_22_1151,nibs_stage_1,3.2.3,59.97363296051521,
,,,,,,,,,,,,0,0,0,0,,87.760910987854,None,87.7394362449646,89.7439501285553,Der frühe Vogel fängt den Wurm.,89.127268075943,106.72802209854126,90.52734336853027,None,103.32779536247253,None,104.72782611846924,106.72802209854126,./data/Subject_07/Session_02/Exp_data/2020_Jul_22_1151/rec_cali_de_post_trial_000.wav,,,,07,02,English,B1,True,False,False,False,False,False,False,False,False,False,True,True,No,No,No,No,No,No,2020_Jul_22_1151,nibs_stage_1,3.2.3,59.97363296051521,
,,,,,,,,,,,,1,0,1,0,,109.77827501296997,None,109.76369795799255,111.77819800376892,Die Ärztin hat Andrea ein Rezept ausgestellt.,111.14492511749268,128.74573707580566,112.5448664188385,None,125.34569940567016,None,126.74563717842102,128.74573707580566,./data/Subject_07/Session_02/Exp_data/2020_Jul_22_1151/rec_cali_de_post_trial_001.wav,,,,07,02,English,B1,True,False,False,False,False,False,False,False,False,False,True,True,No,No,No,No,No,No,2020_Jul_22_1151,nibs_stage_1,3.2.3,59.97363296051521,
,,,,,,,,,,,,2,0,2,0,,131.7959599494934,None,131.7814260482788,133.7960021495819,Einige NGOs schützen die Rechte der Menschen.,133.1626009941101,150.76345801353455,134.56282529830932,None,147.36336741447448,None,148.7634379863739,150.76345801353455,./data/Subject_07/Session_02/Exp_data/2020_Jul_22_1151/rec_cali_de_post_trial_002.wav,,,,07,02,English,B1,True,False,False,False,False,False,False,False,False,False,True,True,No,No,No,No,No,No,2020_Jul_22_1151,nibs_stage_1,3.2.3,59.97363296051521,
,,,,,,,,,,,,3,0,3,0,,153.81370902061462,None,153.79930481910705,155.813814163208,"Ich glaube, es geht um ein rotes Auto.",155.18038606643677,172.78133416175842,156.58052430152892,None,169.38120732307434,None,170.78116607666016,172.78133416175842,./data/Subject_07/Session_02/Exp_data/2020_Jul_22_1151/rec_cali_de_post_trial_003.wav,,,,07,02,English,B1,True,False,False,False,False,False,False,False,False,False,True,True,No,No,No,No,No,No,2020_Jul_22_1151,nibs_stage_1,3.2.3,59.97363296051521,
,,,,,,,,,,,,4,0,4,0,,175.83159494400024,None,175.81706104278564,177.83156394958496,Für mich ist die schönste aller Blumen die Rose.,177.21489596366882,194.81625294685364,178.6149073600769,None,191.4159143924713,None,192.81595396995544,194.81625294685364,./data/Subject_07/Session_02/Exp_data/2020_Jul_22_1151/rec_cali_de_post_trial_004.wav,,,,07,02,English,B1,True,False,False,False,False,False,False,False,False,False,True,True,No,No,No,No,No,No,2020_Jul_22_1151,nibs_stage_1,3.2.3,59.97363296051521,
,,,,,,,,,,,,5,0,5,0,,197.84955096244812,None,197.83515892028808,199.84960412979126,"Ich sitze weit entfernt von der Bühne, also schaue ich durch ein Fernglas.",199.23310708999634,216.83376502990723,200.63292441368102,None,213.43368825912475,214.43372011184692,214.8337471485138,216.83376502990723,./data/Subject_07/Session_02/Exp_data/2020_Jul_22_1151/rec_cali_de_post_trial_005.wav,,,,07,02,English,B1,True,False,False,False,False,False,False,False,False,False,True,True,No,No,No,No,No,No,2020_Jul_22_1151,nibs_stage_1,3.2.3,59.97363296051521,
,,,,,,,,,,,,6,0,6,0,,219.86749505996704,None,219.85295281410217,221.86743807792664,"Ich habe Hunger, was kochst du heute?",221.234277009964,238.83497714996338,222.63408932685851,None,235.4348433971405,None,236.8347909450531,238.83497714996338,./data/Subject_07/Session_02/Exp_data/2020_Jul_22_1151/rec_cali_de_post_trial_006.wav,,,,07,02,English,B1,True,False,False,False,False,False,False,False,False,False,True,True,No,No,No,No,No,No,2020_Jul_22_1151,nibs_stage_1,3.2.3,59.97363296051521,
,,,,,,,,,,,,7,0,7,0,,241.90183115005493,None,241.88743729591368,243.9019160270691,Können Sie mir auf Hundert Euro herausgeben?,243.26883506774902,260.86945605278015,244.6685772895813,245.66867899894714,257.46931037902834,None,258.86935901641846,260.86945605278015,./data/Subject_07/Session_02/Exp_data/2020_Jul_22_1151/rec_cali_de_post_trial_007.wav,,,,07,02,English,B1,True,False,False,False,False,False,False,False,False,False,True,True,No,No,No,No,No,No,2020_Jul_22_1151,nibs_stage_1,3.2.3,59.97363296051521,
,,,,,,,,,,,,8,0,8,0,,263.9196560382843,None,263.90521988868716,265.9197201728821,Großbritanien tritt aus der EU aus.,265.28639006614685,282.88725113868713,266.6863943099976,None,279.4871333599091,280.4871439933777,280.8871581554413,282.88725113868713,./data/Subject_07/Session_02/Exp_data/2020_Jul_22_1151/rec_cali_de_post_trial_008.wav,,,,07,02,English,B1,True,False,False,False,False,False,False,False,False,False,True,True,No,No,No,No,No,No,2020_Jul_22_1151,nibs_stage_1,3.2.3,59.97363296051521,
,,,,,,,,,,,,9,0,9,0,,285.93741512298584,None,285.9230350017548,287.9377021789551,"In Europa gibt es vier Jahrezeiten, am Zentralafrika nur eine.",287.33729004859924,304.938490152359,288.72091636657717,289.72086811065674,301.53811941146853,None,302.92165207862854,304.92173409461975,./data/Subject_07/Session_02/Exp_data/2020_Jul_22_1151/rec_cali_de_post_trial_009.wav,,,,07,02,English,B1,True,False,False,False,False,False,False,False,False,False,True,True,No,No,No,No,No,No,2020_Jul_22_1151,nibs_stage_1,3.2.3,59.97363296051521,
,,,,,,,,,,,,,,,,,,,,,,,,,,,,,,,307.9552710056305,None," This experiment is finished. 
Thanks for your participation.",,,,,,,,,,,,,,,,,,,,,,,,,,,
