run.thisRepN,run.thisTrialN,run.thisN,run.thisIndex,artifact_trial.thisRepN,artifact_trial.thisTrialN,artifact_trial.thisN,artifact_trial.thisIndex,QA_block.thisRepN,QA_block.thisTrialN,QA_block.thisN,QA_block.thisIndex,QA_trial.thisRepN,QA_trial.thisTrialN,QA_trial.thisN,QA_trial.thisIndex,fade_in_text.text,fade_in_text.started,fade_in_text.stopped,Artifact_intro_title.started,Artifact_intro_title.stopped,Artifact_intro_text.text,Artifact_intro_text.started,Artifact_intro_text.stopped,Artifact_intro_audio.started,Artifact_intro_audio.stopped,Artifact_intro_cont.started,Artifact_intro_cont.stopped,Artifact_rec_text.text,Artifact_rec_text.started,Artifact_rec_text.stopped,Artifact_rec_beep_hint.started,Artifact_rec_beep_hint.stopped,Artifact_rec_action.started,Artifact_rec_action.stopped,Artifact_rec_beep_start.started,Artifact_rec_beep_start.stopped,Artifact_rec_recording.started,Artifact_rec_recording.stopped,Artifact_rec_beep_end.started,Artifact_rec_beep_end.stopped,Artifact_rec_break.started,Artifact_rec_break.stopped,RS_intro_title.started,RS_intro_title.stopped,RS_intro_text.text,RS_intro_text.started,RS_intro_text.stopped,RS_intro_audio.started,RS_intro_audio.stopped,RS_rec_text.text,RS_rec_text.started,RS_rec_text.stopped,Pause_cont.started,Pause_cont.stopped,QA_intro_title.started,QA_intro_title.stopped,QA_intro_text.text,QA_intro_text.started,QA_intro_text.stopped,QA_intro_audio.started,QA_intro_audio.stopped,QA_intro_cont.started,QA_intro_cont.stopped,QA_rec_text.text,QA_rec_text.started,QA_rec_text.stopped,QA_rec_beep_hint.started,QA_rec_beep_hint.stopped,QA_rec_question.sen_text,QA_rec_question.cen_text,QA_rec_question.started,QA_rec_question.stopped,QA_rec_beep_start.started,QA_rec_beep_start.stopped,QA_rec_beep_end.started,QA_rec_beep_end.stopped,QA_rec_break.started,QA_rec_break.stopped,filename,fade_out_text.text,fade_out_text.started,fade_out_text.stopped,participant,session,First language,German level,Full_screen,Instruction,Intro,Artifact,Cali_pre,Fade_in_out,Artifact_within,Resting_State,QA,Pause,Cali_post,End,Breakpoint_Cali_pre_trial,Breakpoint_Run,Breakpoint_RS_block,Breakpoint_QA_block,Breakpoint_QA_trial,Breakpoint_Cali_post_trial,date,expName,psychopyVersion,frameRate,
2,0,2,0,0,0,0,0,,,,,,,,,Please remain seated until further instruction via the earphone.,68.27288603782654,None,70.30631399154663,None,"  - Task: Artifacts collection   
  - Please follow audio instruction              
",70.30631399154663,None,70.28858723640442,None,96.67421984672546,None,,99.15784287452698,None,99.14044919013978,101.14111804962158,100.5244776248932,None,103.92467465400696,104.92463994026184,105.32464566230774,115.32526087760925,115.72528257369996,116.725270986557,117.12528586387634,118.12542486190796,,,,,,,,,,,,,,,,,,,,,,,,,,,,,,,,,,,,,,,,,03,02,English,A2,True,False,True,False,False,True,True,True,True,True,True,True,No,2,No,No,No,No,2020_Jul_14_1215,nibs_stage_1,3.2.3,60.049622533727145,
2,0,2,0,1,0,1,0,,,,,,,,,,,,,,,,,,,,,,121.1589298248291,None,121.15784611701966,123.15902400016785,122.5423146724701,None,125.94247570037842,None,127.34255566596985,137.34309697151184,137.7431077003479,138.74312496185303,139.14317893981934,140.14323782920837,,,,,,,,,,,,,,,,,,,,,,,,,,,,,,,,,,,,,,,,,03,02,English,A2,True,False,True,False,False,True,True,True,True,True,True,True,No,2,No,No,No,No,2020_Jul_14_1215,nibs_stage_1,3.2.3,60.049622533727145,
2,0,2,0,2,0,2,0,,,,,,,,,,,,,,,,,,,,,,143.17673087120056,143.17673087120056,143.1589750289917,145.16019797325134,144.56012358665467,None,147.96030774116517,148.9603729248047,149.36040058135987,159.3608410358429,159.76085867881775,160.76100182533264,161.16101598739624,162.16106295585632,,,,,,,,,,,,,,,,,,,,,,,,,,,,,,,,,,,,,,,,,03,02,English,A2,True,False,True,False,False,True,True,True,True,True,True,True,No,2,No,No,No,No,2020_Jul_14_1215,nibs_stage_1,3.2.3,60.049622533727145,
2,0,2,0,3,0,3,0,,,,,,,,,,,,,,,,,,,,,,165.1784679889679,None,165.17686619758607,167.17791986465454,166.5612846851349,None,169.9614755153656,None,171.3614326953888,181.3621120452881,181.76206769943238,182.76214504241943,183.16215205192566,184.16211795806885,,,,,,,,,,,,,,,,,,,,,,,,,,,,,,,,,,,,,,,,,03,02,English,A2,True,False,True,False,False,True,True,True,True,True,True,True,No,2,No,No,No,No,2020_Jul_14_1215,nibs_stage_1,3.2.3,60.049622533727145,
2,0,2,0,4,0,4,0,,,,,,,,,,,,,,,,,,,,,,187.19587802886963,187.19587802886963,187.1779631614685,189.1791079044342,188.57919158935547,None,191.9795476436615,None,193.37949171066285,203.38009595870972,203.7801317214966,None,205.18022084236145,206.1802818775177,,,,,,,,,,,,,,,,,,,,,,,,,,,,,,,,,,,,,,,,,03,02,English,A2,True,False,True,False,False,True,True,True,True,True,True,True,No,2,No,No,No,No,2020_Jul_14_1215,nibs_stage_1,3.2.3,60.049622533727145,
2,0,2,0,5,0,5,0,,,,,,,,,,,,,,,,,,,,,,209.19757604599,None,209.19600405693055,211.19717693328857,210.58056559562684,None,213.98064270019532,None,215.3806387424469,225.3812599182129,225.78125872612,None,227.18135905265808,228.18139696121216,,,,,,,,,,,,,,,,,,,,,,,,,,,,,,,,,,,,,,,,,03,02,English,A2,True,False,True,False,False,True,True,True,True,True,True,True,No,2,No,No,No,No,2020_Jul_14_1215,nibs_stage_1,3.2.3,60.049622533727145,
2,0,2,0,6,0,6,0,,,,,,,,,,,,,,,,,,,,,,231.2147569656372,231.2147569656372,231.19715824127198,233.19833302497864,232.5982936859131,None,235.9985255241394,None,237.39853563308716,247.39899587631226,247.79936566352845,248.79912900924683,249.1991798877716,250.199236869812,,,,,,,,,,,,,,,,,,,,,,,,,,,,,,,,,,,,,,,,,03,02,English,A2,True,False,True,False,False,True,True,True,True,True,True,True,No,2,No,No,No,No,2020_Jul_14_1215,nibs_stage_1,3.2.3,60.049622533727145,
2,0,2,0,7,0,7,0,,,,,,,,,,,,,,,,,,,,,,253.21625995635986,None,253.21498312950135,255.2163109779358,254.599435710907,257.5995948314667,257.9995967388153,None,259.3996995925903,269.40013003349304,269.8004175662994,None,271.20034289360046,272.20038986206055,,,,,,,,,,,,,,,,,,,,,,,,,,,,,,,,,,,,,,,,,03,02,English,A2,True,False,True,False,False,True,True,True,True,True,True,True,No,2,No,No,No,No,2020_Jul_14_1215,nibs_stage_1,3.2.3,60.049622533727145,
2,0,2,0,8,0,8,0,,,,,,,,,,,,,,,,,,,,,,275.2337820529938,275.2337820529938,275.2162682056427,277.2172849178314,276.61725559234617,279.6174168586731,280.0174426078796,None,281.4174875259399,291.4180829524994,291.81801571846006,None,293.2181179523468,294.2181658744812,,,,,,,,,,,,,,,,,,,,,,,,,,,,,,,,,,,,,,,,,03,02,English,A2,True,False,True,False,False,True,True,True,True,True,True,True,No,2,No,No,No,No,2020_Jul_14_1215,nibs_stage_1,3.2.3,60.049622533727145,
2,0,2,0,9,0,9,0,,,,,,,,,,,,,,,,,,,,,,297.2353558540344,None,297.2339130878448,299.2352669239044,298.61840667724607,301.6185779571533,302.0185736656189,None,303.41875257492063,313.4191780090332,313.8191856384277,None,315.2191858291626,316.2193229198456,,,,,,,,,,,,,,,,,,,,,,,,,,,,,,,,,,,,,,,,,03,02,English,A2,True,False,True,False,False,True,True,True,True,True,True,True,No,2,No,No,No,No,2020_Jul_14_1215,nibs_stage_1,3.2.3,60.049622533727145,
2,0,2,0,10,0,10,0,,,,,,,,,,,,,,,,,,,,,,319.2525908946991,319.2525908946991,319.235077047348,321.23601388931274,320.63596572875974,None,324.03640069961546,None,325.43623557090757,335.4367699623108,335.83687963485715,None,337.2369270324707,338.23698687553406,,,,,,,,,,,,,,,,,,,,,,,,,,,,,,,,,,,,,,,,,03,02,English,A2,True,False,True,False,False,True,True,True,True,True,True,True,No,2,No,No,No,No,2020_Jul_14_1215,nibs_stage_1,3.2.3,60.049622533727145,
2,0,2,0,11,0,11,0,,,,,,,,,,,,,,,,,,,,,,341.25431990623474,None,341.2527591228485,343.25427985191345,342.63735952377317,None,346.03754057884214,347.0375859737396,347.43761172294614,357.4384038448334,357.83830561637876,None,359.23822689056396,360.2382800579071,,,,,,,,,,,,,,,,,,,,,,,,,,,,,,,,,,,,,,,,,03,02,English,A2,True,False,True,False,False,True,True,True,True,True,True,True,No,2,No,No,No,No,2020_Jul_14_1215,nibs_stage_1,3.2.3,60.049622533727145,
2,0,2,0,12,0,12,0,,,,,,,,,,,,,,,,,,,,,,363.27155900001526,363.27155900001526,363.25403513908384,365.2550718784332,364.65503373146055,367.65519189834595,368.0552107334137,369.05540204048157,369.4553705692291,379.45579290390015,379.8557147026062,None,381.25572896003723,382.2558858394623,,,,,,,,,,,,,,,,,,,,,,,,,,,,,,,,,,,,,,,,,03,02,English,A2,True,False,True,False,False,True,True,True,True,True,True,True,No,2,No,No,No,No,2020_Jul_14_1215,nibs_stage_1,3.2.3,60.049622533727145,
2,0,2,0,13,0,13,0,,,,,,,,,,,,,,,,,,,,,,385.27329993247986,None,385.27174224853513,387.27271604537964,386.65609564781187,None,390.05628552436826,391.0564169883728,391.45635356903074,401.4568738937378,401.85687961578367,None,403.2569570541382,404.25692796707153,,,,,,,,,,,,,,,,,,,,,,,,,,,,,,,,,,,,,,,,,03,02,English,A2,True,False,True,False,False,True,True,True,True,True,True,True,No,2,No,No,No,No,2020_Jul_14_1215,nibs_stage_1,3.2.3,60.049622533727145,
2,0,2,0,14,0,14,0,,,,,,,,,,,,,,,,,,,,,,407.2906789779663,407.2906789779663,407.2727350234985,409.273845911026,408.67397060394285,None,412.07406463623045,413.07404589653015,413.4740585327148,423.4746880531311,423.8746866226196,None,425.274778842926,426.27474904060364,,,,,,,,,,,,,,,,,,,,,,,,,,,,,,,,,,,,,,,,,03,02,English,A2,True,False,True,False,False,True,True,True,True,True,True,True,No,2,No,No,No,No,2020_Jul_14_1215,nibs_stage_1,3.2.3,60.049622533727145,
2,0,2,0,,,,,0,0,0,0,0,0,0,0,,,,,,,,,,,,,,,,,,,,,,,,,,,,636.7031500339508,None," - Task: Keep seated and relaxed with either      
             opening or closing eyes                  
 - Beep sound with decreasing pitch: Block finish 
",636.7031500339508,None,636.70154671669,None,"Please keep relaxed and close your eyes.
",659.7202060222626,839.7298009395599,843.129763841629,None,857.8477809429169,None," - Task: Listen to the question& Speak out answer 
 - Melodious beep sound: Trial start              
 - Silent sound (blank): censored word            
 - Beep sound with increasing pitch: Rec. start   
 - Beep sound with decreasing pitch: Rec. finish  
",857.8477809429169,None,857.8289093017578,None,897.2325308322906,None,Listen to the question and speak out your answer!,900.6838109493256,None,900.6645106792449,902.6663768291473,"Wir planen eine Route durch das ganze Land, von Westen bis Osten.",planen,902.0496686935425,906.1999280452728,906.5999485492706,None,917.250370645523,None,918.6506118774414,919.6671369075775,./data/Subject_03/Session_02/Exp_data/2020_Jul_14_1215/rec_QA_run_02_block_000_trial_000.wav,,,,03,02,English,A2,True,False,True,False,False,True,True,True,True,True,True,True,No,2,No,No,No,No,2020_Jul_14_1215,nibs_stage_1,3.2.3,60.049622533727145,
2,0,2,0,,,,,0,0,0,0,1,0,1,0,,,,,,,,,,,,,,,,,,,,,,,,,,,,,,,,,,,,,,,,,,,,,,,,,Listen to the question and speak out your answer!,921.7010400295258,None,921.6828381061554,923.6843099594116,Die Zähne werden geputzt und der Bart rasiert.,rasiert,923.0841187477112,None,926.4176575183868,None,938.2848176002502,939.2849678993225,939.6849830150604,940.6850049495697,./data/Subject_03/Session_02/Exp_data/2020_Jul_14_1215/rec_QA_run_02_block_000_trial_001.wav,,,,03,02,English,A2,True,False,True,False,False,True,True,True,True,True,True,True,No,2,No,No,No,No,2020_Jul_14_1215,nibs_stage_1,3.2.3,60.049622533727145,
2,0,2,0,,,,,0,0,0,0,2,0,2,0,,,,,,,,,,,,,,,,,,,,,,,,,,,,,,,,,,,,,,,,,,,,,,,,,Listen to the question and speak out your answer!,942.7352478504181,None,942.7173648357391,944.7185938358307,"Das gute Wetter wird halten, weil ich keine Wolken sehe.",halten,944.1018857002258,947.4353818893433,947.8353907108307,948.8354258537292,959.3026796817779,None,960.7027540206909,961.7028059959412,./data/Subject_03/Session_02/Exp_data/2020_Jul_14_1215/rec_QA_run_02_block_000_trial_002.wav,,,,03,02,English,A2,True,False,True,False,False,True,True,True,True,True,True,True,No,2,No,No,No,No,2020_Jul_14_1215,nibs_stage_1,3.2.3,60.049622533727145,
2,0,2,0,,,,,0,0,0,0,3,0,3,0,,,,,,,,,,,,,,,,,,,,,,,,,,,,,,,,,,,,,,,,,,,,,,,,,Listen to the question and speak out your answer!,963.7874598503113,None,963.7684626102447,965.7697780132294,"Er ist ein ehrlicher Mann, der nie lügt.",lügt,965.1362496852875,None,967.9197167396545,968.9198160171509,980.3372305870056,None,981.737133026123,982.7371828556061,./data/Subject_03/Session_02/Exp_data/2020_Jul_14_1215/rec_QA_run_02_block_000_trial_003.wav,,,,03,02,English,A2,True,False,True,False,False,True,True,True,True,True,True,True,No,2,No,No,No,No,2020_Jul_14_1215,nibs_stage_1,3.2.3,60.049622533727145,
2,0,2,0,,,,,0,0,0,0,4,0,4,0,,,,,,,,,,,,,,,,,,,,,,,,,,,,,,,,,,,,,,,,,,,,,,,,,Listen to the question and speak out your answer!,984.8042929172516,None,984.7862077236175,986.7873258590698,Bienen liefern Honig.,liefern,986.1873425483703,987.8040969371796,988.2207845687866,989.2208549976349,1001.3879286289215,None,1002.7879118919373,1003.7881028652191,./data/Subject_03/Session_02/Exp_data/2020_Jul_14_1215/rec_QA_run_02_block_000_trial_004.wav,,,,03,02,English,A2,True,False,True,False,False,True,True,True,True,True,True,True,No,2,No,No,No,No,2020_Jul_14_1215,nibs_stage_1,3.2.3,60.049622533727145,
2,0,2,0,,,,,0,0,0,0,5,0,5,0,,,,,,,,,,,,,,,,,,,,,,,,,,,,,,,,,,,,,,,,,,,,,,,,,Listen to the question and speak out your answer!,1005.8386888504028,None,1005.8204627513885,1007.8215458393097,Die kluge Gebäudekonstruktion kann das Haus vor Windschäden schützen.,schützen,1007.2048875331878,1011.2883598804474,1011.7050396442413,None,1022.4056645870209,None,1023.8059339523315,1024.8057129383087,./data/Subject_03/Session_02/Exp_data/2020_Jul_14_1215/rec_QA_run_02_block_000_trial_005.wav,,,,03,02,English,A2,True,False,True,False,False,True,True,True,True,True,True,True,No,2,No,No,No,No,2020_Jul_14_1215,nibs_stage_1,3.2.3,60.049622533727145,
2,0,2,0,,,,,0,0,0,0,6,0,6,0,,,,,,,,,,,,,,,,,,,,,,,,,,,,,,,,,,,,,,,,,,,,,,,,,Listen to the question and speak out your answer!,1026.9061019420624,None,1026.888381433487,1028.8893358707428,"Nachdem mein erster Versuch gescheitert war, probierte ich es noch einmal.",probierte,1028.272550725937,1032.389605998993,1032.7729836940766,None,1043.4735025405885,None,1044.890244960785,None,./data/Subject_03/Session_02/Exp_data/2020_Jul_14_1215/rec_QA_run_02_block_000_trial_006.wav,,,,03,02,English,A2,True,False,True,False,False,True,True,True,True,True,True,True,No,2,No,No,No,No,2020_Jul_14_1215,nibs_stage_1,3.2.3,60.049622533727145,
2,0,2,0,,,,,0,0,0,0,7,0,7,0,,,,,,,,,,,,,,,,,,,,,,,,,,,,,,,,,,,,,,,,,,,,,,,,,Listen to the question and speak out your answer!,1047.957335948944,None,1047.9393264770508,1049.9571928977966,Kann ich mich um das Stipendium bewerben?,bewerben,1049.3404726028443,None,1052.0072685718537,None,1064.541129732132,None,1065.9579429626465,None,./data/Subject_03/Session_02/Exp_data/2020_Jul_14_1215/rec_QA_run_02_block_000_trial_007.wav,,,,03,02,English,A2,True,False,True,False,False,True,True,True,True,True,True,True,No,2,No,No,No,No,2020_Jul_14_1215,nibs_stage_1,3.2.3,60.049622533727145,
2,0,2,0,,,,,0,0,0,0,8,0,8,0,,,,,,,,,,,,,,,,,,,,,,,,,,,,,,,,,,,,,,,,,,,,,,,,,Listen to the question and speak out your answer!,1068.9747819900513,None,1068.957005786896,1070.974856853485,Wir sind verlobt und wollen nächstes Jahr heiraten.,heiraten,1070.3581375122071,None,1073.8916627407075,1074.9083540439606,1085.5589505672456,1086.5757188796997,1086.9758689403534,None,./data/Subject_03/Session_02/Exp_data/2020_Jul_14_1215/rec_QA_run_02_block_000_trial_008.wav,,,,03,02,English,A2,True,False,True,False,False,True,True,True,True,True,True,True,No,2,No,No,No,No,2020_Jul_14_1215,nibs_stage_1,3.2.3,60.049622533727145,
2,0,2,0,,,,,0,0,0,0,9,0,9,0,,,,,,,,,,,,,,,,,,,,,,,,,,,,,,,,,,,,,,,,,,,,,,,,,Listen to the question and speak out your answer!,1090.026240825653,None,1090.0081327438356,1092.025934934616,"Florian habe so lange Beine, deshalb trage er nur lange Hosen.",trage,1091.4093536376954,None,1096.0761305332185,1097.092875957489,1106.610022687912,None,1108.0267629623413,None,./data/Subject_03/Session_02/Exp_data/2020_Jul_14_1215/rec_QA_run_02_block_000_trial_009.wav,,,,03,02,English,A2,True,False,True,False,False,True,True,True,True,True,True,True,No,2,No,No,No,No,2020_Jul_14_1215,nibs_stage_1,3.2.3,60.049622533727145,
2,0,2,0,,,,,0,0,0,0,10,0,10,0,,,,,,,,,,,,,,,,,,,,,,,,,,,,,,,,,,,,,,,,,,,,,,,,,Listen to the question and speak out your answer!,1111.0784080028534,None,1111.0591938972475,1113.0770289897919,Jeden Tag lesen wir die Zeitung.,lesen,1112.460305595398,1114.7104468345642,1115.0938796043397,1116.1105098724365,1127.6611656188966,None,1129.0778589248657,None,./data/Subject_03/Session_02/Exp_data/2020_Jul_14_1215/rec_QA_run_02_block_000_trial_010.wav,,,,03,02,English,A2,True,False,True,False,False,True,True,True,True,True,True,True,No,2,No,No,No,No,2020_Jul_14_1215,nibs_stage_1,3.2.3,60.049622533727145,
2,0,2,0,,,,,0,0,0,0,11,0,11,0,,,,,,,,,,,,,,,,,,,,,,,,,,,,,,,,,,,,,,,,,,,,,,,,,Listen to the question and speak out your answer!,1132.1447410583496,None,1132.1103139400484,1134.1447598934174,"Der Arzt wollte ihm verwehren, seinen Vater zu besuchen.",besuchen,1133.5280586719514,None,1137.4616126060487,1138.478436946869,1148.7121795654298,None,1150.1289439201355,None,./data/Subject_03/Session_02/Exp_data/2020_Jul_14_1215/rec_QA_run_02_block_000_trial_011.wav,,,,03,02,English,A2,True,False,True,False,False,True,True,True,True,True,True,True,No,2,No,No,No,No,2020_Jul_14_1215,nibs_stage_1,3.2.3,60.049622533727145,
2,0,2,0,,,,,0,0,0,0,12,0,12,0,,,,,,,,,,,,,,,,,,,,,,,,,,,,,,,,,,,,,,,,,,,,,,,,,Listen to the question and speak out your answer!,1153.1807808876038,None,1153.1613789081575,1155.1791858673096,"Ich ging zum Arzt, weil ich mich unangenehm fühlte.",fühlte,1154.5625516414643,1157.7460029125214,1158.0959965229035,1159.1127409934998,1169.7632636070252,None,1171.1800038814545,None,./data/Subject_03/Session_02/Exp_data/2020_Jul_14_1215/rec_QA_run_02_block_000_trial_012.wav,,,,03,02,English,A2,True,False,True,False,False,True,True,True,True,True,True,True,No,2,No,No,No,No,2020_Jul_14_1215,nibs_stage_1,3.2.3,60.049622533727145,
2,0,2,0,,,,,0,0,0,0,13,0,13,0,,,,,,,,,,,,,,,,,,,,,,,,,,,,,,,,,,,,,,,,,,,,,,,,,Listen to the question and speak out your answer!,1174.231143951416,None,1174.2124248027803,1176.2304768562317,"Das verstehe ich nicht, was meinst du damit?",meinst,1175.613572740555,1178.297061920166,1178.6803986072541,None,1190.814395570755,None,1192.2310688495636,None,./data/Subject_03/Session_02/Exp_data/2020_Jul_14_1215/rec_QA_run_02_block_000_trial_013.wav,,,,03,02,English,A2,True,False,True,False,False,True,True,True,True,True,True,True,No,2,No,No,No,No,2020_Jul_14_1215,nibs_stage_1,3.2.3,60.049622533727145,
2,0,2,0,,,,,0,0,0,0,14,0,14,0,,,,,,,,,,,,,,,,,,,,,,,,,,,,,,,,,,,,,,,,,,,,,,,,,Listen to the question and speak out your answer!,1195.299418926239,None,1195.280166578293,1197.2980258464813,"Ob die bereitgestellte Information korrekt ist, müssen wir prüfen.",prüfen,1196.681323671341,None,1201.148231649399,None,1211.8821057319642,None,1213.2989909648895,None,./data/Subject_03/Session_02/Exp_data/2020_Jul_14_1215/rec_QA_run_02_block_000_trial_014.wav,,,,03,02,English,A2,True,False,True,False,False,True,True,True,True,True,True,True,No,2,No,No,No,No,2020_Jul_14_1215,nibs_stage_1,3.2.3,60.049622533727145,
2,0,2,0,,,,,0,0,0,0,15,0,15,0,,,,,,,,,,,,,,,,,,,,,,,,,,,,,,,,,,,,,,,,,,,,,,,,,Listen to the question and speak out your answer!,1216.3495979309082,None,1216.331378746033,1218.3491079807281,Sie hat den Kuchen in einer runden Form gebacken.,gebacken,1217.7324077129365,None,1220.9659036636353,None,1232.9332746505738,1233.9499299526215,1234.349937915802,None,./data/Subject_03/Session_02/Exp_data/2020_Jul_14_1215/rec_QA_run_02_block_000_trial_015.wav,,,,03,02,English,A2,True,False,True,False,False,True,True,True,True,True,True,True,No,2,No,No,No,No,2020_Jul_14_1215,nibs_stage_1,3.2.3,60.049622533727145,
2,0,2,0,,,,,0,0,0,0,16,0,16,0,,,,,,,,,,,,,,,,,,,,,,,,,,,,,,,,,,,,,,,,,,,,,,,,,Listen to the question and speak out your answer!,1237.400132894516,None,1237.3824298858644,1239.4001169204712,Ich bin von New York nach München geflogen.,geflogen,1238.7835496902467,1241.3003280162811,1241.6836866378785,None,1253.984250688553,None,1255.401006937027,None,./data/Subject_03/Session_02/Exp_data/2020_Jul_14_1215/rec_QA_run_02_block_000_trial_016.wav,,,,03,02,English,A2,True,False,True,False,False,True,True,True,True,True,True,True,No,2,No,No,No,No,2020_Jul_14_1215,nibs_stage_1,3.2.3,60.049622533727145,
2,0,2,0,,,,,0,0,0,0,17,0,17,0,,,,,,,,,,,,,,,,,,,,,,,,,,,,,,,,,,,,,,,,,,,,,,,,,Listen to the question and speak out your answer!,1258.4684388637543,None,1258.4334338188173,1260.4679708480835,Dieser Bus bringt dich zum Strand.,bringt,1259.8512565135957,None,1262.2513686656953,None,1275.0520416736604,None,1276.4687700271606,None,./data/Subject_03/Session_02/Exp_data/2020_Jul_14_1215/rec_QA_run_02_block_000_trial_017.wav,,,,03,02,English,A2,True,False,True,False,False,True,True,True,True,True,True,True,No,2,No,No,No,No,2020_Jul_14_1215,nibs_stage_1,3.2.3,60.049622533727145,
2,0,2,0,,,,,0,0,0,0,18,0,18,0,,,,,,,,,,,,,,,,,,,,,,,,,,,,,,,,,,,,,,,,,,,,,,,,,Listen to the question and speak out your answer!,1279.5024778842926,None,1279.4845764160157,1281.5023670196533,"Wenn es kalt wird, muss ich einen warmen Pullover tragen.",tragen,1280.8855885505677,1284.2027089595795,1284.5525206565858,None,1296.086447620392,1297.103178024292,1297.503075838089,None,./data/Subject_03/Session_02/Exp_data/2020_Jul_14_1215/rec_QA_run_02_block_000_trial_018.wav,,,,03,02,English,A2,True,False,True,False,False,True,True,True,True,True,True,True,No,2,No,No,No,No,2020_Jul_14_1215,nibs_stage_1,3.2.3,60.049622533727145,
2,0,2,0,,,,,0,0,0,0,19,0,19,0,,,,,,,,,,,,,,,,,,,,,,,,,,,,,,,,,,,,,,,,,,,,,,,,,Listen to the question and speak out your answer!,1300.5700328350067,None,1300.5356257438661,1302.5701169967651,Ich koche die Kartoffeln für die Kartoffelsuppe.,koche,1301.9534245967866,None,1305.1536716461183,1306.1703929901123,1317.154309654236,1318.1708438396454,1318.5708940029144,None,./data/Subject_03/Session_02/Exp_data/2020_Jul_14_1215/rec_QA_run_02_block_000_trial_019.wav,,,,03,02,English,A2,True,False,True,False,False,True,True,True,True,True,True,True,No,2,No,No,No,No,2020_Jul_14_1215,nibs_stage_1,3.2.3,60.049622533727145,
2,0,2,0,,,,,0,0,0,0,20,0,20,0,,,,,,,,,,,,,,,,,,,,,,,,,,,,,,,,,,,,,,,,,,,,,,,,,Listen to the question and speak out your answer!,1321.6053910255432,None,1321.5865976333619,1323.6045398712158,Er hat Kartoffeln mit der Schale gekocht.,gekocht,1322.987753534317,1325.404629945755,1325.7878927230836,1326.8047049045563,1338.1886435985566,None,1339.605360031128,None,./data/Subject_03/Session_02/Exp_data/2020_Jul_14_1215/rec_QA_run_02_block_000_trial_020.wav,,,,03,02,English,A2,True,False,True,False,False,True,True,True,True,True,True,True,No,2,No,No,No,No,2020_Jul_14_1215,nibs_stage_1,3.2.3,60.049622533727145,
2,0,2,0,,,,,0,0,0,0,21,0,21,0,,,,,,,,,,,,,,,,,,,,,,,,,,,,,,,,,,,,,,,,,,,,,,,,,Listen to the question and speak out your answer!,1342.6222469806671,None,1342.587777042389,1344.622288942337,"Mutters Einkäufe sind so schwer, deshalb bittet sie Jon, die Tasche zu tragen.",tragen,1343.9722506046296,None,1349.2058495521546,None,1359.1730305194856,None,1360.5897989273071,None,./data/Subject_03/Session_02/Exp_data/2020_Jul_14_1215/rec_QA_run_02_block_000_trial_021.wav,,,,03,02,English,A2,True,False,True,False,False,True,True,True,True,True,True,True,No,2,No,No,No,No,2020_Jul_14_1215,nibs_stage_1,3.2.3,60.049622533727145,
2,0,2,0,,,,,0,0,0,0,22,0,22,0,,,,,,,,,,,,,,,,,,,,,,,,,,,,,,,,,,,,,,,,,,,,,,,,,Listen to the question and speak out your answer!,1363.6573338508606,None,1363.6223047256472,1365.6567828655243,Wir freuen uns sehr über Ihren Besuch.,freuen,1365.040008687973,1367.4568009376526,1367.8068205356599,None,1380.2407707214356,None,1381.6575479507446,None,./data/Subject_03/Session_02/Exp_data/2020_Jul_14_1215/rec_QA_run_02_block_000_trial_022.wav,,,,03,02,English,A2,True,False,True,False,False,True,True,True,True,True,True,True,No,2,No,No,No,No,2020_Jul_14_1215,nibs_stage_1,3.2.3,60.049622533727145,
2,0,2,0,,,,,0,0,0,0,23,0,23,0,,,,,,,,,,,,,,,,,,,,,,,,,,,,,,,,,,,,,,,,,,,,,,,,,Listen to the question and speak out your answer!,1384.6911220550537,None,1384.6566188812258,1386.6911330223083,Aus Fehlern kann man lernen.,lernen,1386.0744096279145,1387.8247900009155,1388.207862520218,None,1401.2752276897431,None,1402.6919429302216,None,./data/Subject_03/Session_02/Exp_data/2020_Jul_14_1215/rec_QA_run_02_block_000_trial_023.wav,,,,03,02,English,A2,True,False,True,False,False,True,True,True,True,True,True,True,No,2,No,No,No,No,2020_Jul_14_1215,nibs_stage_1,3.2.3,60.049622533727145,
2,0,2,0,,,,,0,0,0,0,24,0,24,0,,,,,,,,,,,,,,,,,,,,,,,,,,,,,,,,,,,,,,,,,,,,,,,,,Listen to the question and speak out your answer!,1405.7260918617249,None,1405.6911578655245,1407.725525856018,"Im Sommer brauchen wir ein Moskitonetz, damit wir nicht gestochen werden.",brauchen,1407.108858728409,1411.3590688705444,1411.7424165248872,None,1422.3096446037293,None,1423.7263679504395,None,./data/Subject_03/Session_02/Exp_data/2020_Jul_14_1215/rec_QA_run_02_block_000_trial_024.wav,,,,03,02,English,A2,True,False,True,False,False,True,True,True,True,True,True,True,No,2,No,No,No,No,2020_Jul_14_1215,nibs_stage_1,3.2.3,60.049622533727145,
2,0,2,0,,,,,0,0,0,0,,,,,,,,,,,,,,,,,,,,,,,,,,,,,,,,,,,,,,,,,,1427.7432630062103,None,,,,,,,,,,,,,,,,,,,,,,,,,,,,,03,02,English,A2,True,False,True,False,False,True,True,True,True,True,True,True,No,2,No,No,No,No,2020_Jul_14_1215,nibs_stage_1,3.2.3,60.049622533727145,
2,0,2,0,,,,,1,0,1,0,0,0,0,0,,,,,,,,,,,,,,,,,,,,,,,,,,,,,,,,,,,,,,,,,,,,,,,,,Listen to the question and speak out your answer!,1442.3613300323486,None,1442.3257790088655,1444.3609499931335,Sebastian mag lieber ein schwarzes Brot mit Butter und Marmelade.,mag,1443.7440585136414,1447.9609320163727,1448.3442965984345,None,1458.9448515415193,None,1460.36159491539,None,./data/Subject_03/Session_02/Exp_data/2020_Jul_14_1215/rec_QA_run_02_block_001_trial_000.wav,,,,03,02,English,A2,True,False,True,False,False,True,True,True,True,True,True,True,No,2,No,No,No,No,2020_Jul_14_1215,nibs_stage_1,3.2.3,60.049622533727145,
2,0,2,0,,,,,1,0,1,0,1,0,1,0,,,,,,,,,,,,,,,,,,,,,,,,,,,,,,,,,,,,,,,,,,,,,,,,,Listen to the question and speak out your answer!,1463.397754907608,None,1463.3772384643555,1465.3951768875122,"Ein Flüchtling ist jemand , der aus Not seine Heimat verlässt.",verlässt,1464.7785605430604,1468.3953540325165,1468.778673553467,None,1479.9792856216432,None,1481.3959758281708,None,./data/Subject_03/Session_02/Exp_data/2020_Jul_14_1215/rec_QA_run_02_block_001_trial_001.wav,,,,03,02,English,A2,True,False,True,False,False,True,True,True,True,True,True,True,No,2,No,No,No,No,2020_Jul_14_1215,nibs_stage_1,3.2.3,60.049622533727145,
2,0,2,0,,,,,1,0,1,0,2,0,2,0,,,,,,,,,,,,,,,,,,,,,,,,,,,,,,,,,,,,,,,,,,,,,,,,,Listen to the question and speak out your answer!,1484.4635610580444,None,1484.4283369064333,1486.4629440307617,Der Zahnarzt untersuchte meine Zunge genau.,untersuchte,1485.84632768631,None,1489.113111639023,None,1501.0470165252686,1502.0638258457184,1502.4637830257416,None,./data/Subject_03/Session_02/Exp_data/2020_Jul_14_1215/rec_QA_run_02_block_001_trial_002.wav,,,,03,02,English,A2,True,False,True,False,False,True,True,True,True,True,True,True,No,2,No,No,No,No,2020_Jul_14_1215,nibs_stage_1,3.2.3,60.049622533727145,
2,0,2,0,,,,,1,0,1,0,3,0,3,0,,,,,,,,,,,,,,,,,,,,,,,,,,,,,,,,,,,,,,,,,,,,,,,,,Listen to the question and speak out your answer!,1505.4979219436646,None,1505.4628348827364,1507.4972670078278,"Ich berichtete der Polizei alles, was ich gesehen hatte.",berichtete,1506.8473226070405,1510.3310408592224,1510.7142285346986,None,1522.0480765342713,None,1523.4648180007935,None,./data/Subject_03/Session_02/Exp_data/2020_Jul_14_1215/rec_QA_run_02_block_001_trial_003.wav,,,,03,02,English,A2,True,False,True,False,False,True,True,True,True,True,True,True,No,2,No,No,No,No,2020_Jul_14_1215,nibs_stage_1,3.2.3,60.049622533727145,
2,0,2,0,,,,,1,0,1,0,4,0,4,0,,,,,,,,,,,,,,,,,,,,,,,,,,,,,,,,,,,,,,,,,,,,,,,,,Listen to the question and speak out your answer!,1526.533467054367,None,1526.5139424324036,1528.5317668914795,Jetzt will ich eine Vorstellung machen.,machen,1527.9150585174561,None,1530.4151686668397,None,1543.0992835998536,None,1544.5159268379211,None,./data/Subject_03/Session_02/Exp_data/2020_Jul_14_1215/rec_QA_run_02_block_001_trial_004.wav,,,,03,02,English,A2,True,False,True,False,False,True,True,True,True,True,True,True,No,2,No,No,No,No,2020_Jul_14_1215,nibs_stage_1,3.2.3,60.049622533727145,
2,0,2,0,,,,,1,0,1,0,5,0,5,0,,,,,,,,,,,,,,,,,,,,,,,,,,,,,,,,,,,,,,,,,,,,,,,,,Listen to the question and speak out your answer!,1547.5834319591522,None,1547.5483708858492,1549.5828189849854,Der Vogel flog zurück zu seinem Nest.,flog,1548.9661416053773,None,1551.7996105194093,1552.8163628578186,1564.1669336795808,None,1565.5836708545685,None,./data/Subject_03/Session_02/Exp_data/2020_Jul_14_1215/rec_QA_run_02_block_001_trial_005.wav,,,,03,02,English,A2,True,False,True,False,False,True,True,True,True,True,True,True,No,2,No,No,No,No,2020_Jul_14_1215,nibs_stage_1,3.2.3,60.049622533727145,
2,0,2,0,,,,,1,0,1,0,6,0,6,0,,,,,,,,,,,,,,,,,,,,,,,,,,,,,,,,,,,,,,,,,,,,,,,,,Listen to the question and speak out your answer!,1568.618155002594,None,1568.5993964195252,1570.617262840271,"Das Essen riecht so gut, was kochst du heute?",kochst,1570.0005756855012,1572.8173060417175,1573.2007247447968,None,1585.2013536930085,None,1586.6180820465088,None,./data/Subject_03/Session_02/Exp_data/2020_Jul_14_1215/rec_QA_run_02_block_001_trial_006.wav,,,,03,02,English,A2,True,False,True,False,False,True,True,True,True,True,True,True,No,2,No,No,No,No,2020_Jul_14_1215,nibs_stage_1,3.2.3,60.049622533727145,
2,0,2,0,,,,,1,0,1,0,7,0,7,0,,,,,,,,,,,,,,,,,,,,,,,,,,,,,,,,,,,,,,,,,,,,,,,,,Listen to the question and speak out your answer!,1589.6529760360718,None,1589.63403840065,1591.6516749858856,Peter sitzt den ganzen Tag am Computer.,sitzt,1591.0349797248841,None,1594.268466615677,None,1606.2357787132264,None,1607.6526329517365,None,./data/Subject_03/Session_02/Exp_data/2020_Jul_14_1215/rec_QA_run_02_block_001_trial_007.wav,,,,03,02,English,A2,True,False,True,False,False,True,True,True,True,True,True,True,No,2,No,No,No,No,2020_Jul_14_1215,nibs_stage_1,3.2.3,60.049622533727145,
2,0,2,0,,,,,1,0,1,0,8,0,8,0,,,,,,,,,,,,,,,,,,,,,,,,,,,,,,,,,,,,,,,,,,,,,,,,,Listen to the question and speak out your answer!,1610.7200038433075,None,1610.6849518299105,1612.719405889511,Ich möchte einen Flug nach Spanien buchen.,buchen,1612.1027726173402,1614.686280965805,1615.0695256233216,None,1627.3035127162934,None,1628.7201759815216,None,./data/Subject_03/Session_02/Exp_data/2020_Jul_14_1215/rec_QA_run_02_block_001_trial_008.wav,,,,03,02,English,A2,True,False,True,False,False,True,True,True,True,True,True,True,No,2,No,No,No,No,2020_Jul_14_1215,nibs_stage_1,3.2.3,60.049622533727145,
2,0,2,0,,,,,1,0,1,0,9,0,9,0,,,,,,,,,,,,,,,,,,,,,,,,,,,,,,,,,,,,,,,,,,,,,,,,,Listen to the question and speak out your answer!,1631.7377939224243,None,1631.7027501106263,1633.737102985382,Ich male sehr gerne Ölbilder.,male,1633.087154531479,None,1635.5872656345368,None,1648.2879935741425,None,1649.705239057541,None,./data/Subject_03/Session_02/Exp_data/2020_Jul_14_1215/rec_QA_run_02_block_001_trial_009.wav,,,,03,02,English,A2,True,False,True,False,False,True,True,True,True,True,True,True,No,2,No,No,No,No,2020_Jul_14_1215,nibs_stage_1,3.2.3,60.049622533727145,
2,0,2,0,,,,,1,0,1,0,10,0,10,0,,,,,,,,,,,,,,,,,,,,,,,,,,,,,,,,,,,,,,,,,,,,,,,,,Listen to the question and speak out your answer!,1652.7716188430786,None,1652.7537395477295,1654.7716088294983,Er verwendet einen Bleistift auf der Wand zu malen.,malen,1654.121576690674,1657.138428926468,1657.5550705432893,None,1669.3223246574403,None,1670.7390809059143,None,./data/Subject_03/Session_02/Exp_data/2020_Jul_14_1215/rec_QA_run_02_block_001_trial_010.wav,,,,03,02,English,A2,True,False,True,False,False,True,True,True,True,True,True,True,No,2,No,No,No,No,2020_Jul_14_1215,nibs_stage_1,3.2.3,60.049622533727145,
2,0,2,0,,,,,1,0,1,0,11,0,11,0,,,,,,,,,,,,,,,,,,,,,,,,,,,,,,,,,,,,,,,,,,,,,,,,,Listen to the question and speak out your answer!,1673.8060050010681,None,1673.7881896018982,1675.8060789108276,Sie fühlt sich während der Quarantäne sehr langweilig.,fühlt,1675.155976676941,1678.4394788742065,1678.856150531769,None,1690.3567646980287,None,1691.7735178470612,None,./data/Subject_03/Session_02/Exp_data/2020_Jul_14_1215/rec_QA_run_02_block_001_trial_011.wav,,,,03,02,English,A2,True,False,True,False,False,True,True,True,True,True,True,True,No,2,No,No,No,No,2020_Jul_14_1215,nibs_stage_1,3.2.3,60.049622533727145,
2,0,2,0,,,,,1,0,1,0,12,0,12,0,,,,,,,,,,,,,,,,,,,,,,,,,,,,,,,,,,,,,,,,,,,,,,,,,Listen to the question and speak out your answer!,1694.8412818908691,None,1694.8224734783173,1696.8406338691711,"Dieses Zelt wurde für extreme Wetterlagen, z.B. Sturm, Schneesturm, gebaut.",gebaut,1696.2240387439729,None,1702.0240985393525,None,1711.4245137214662,None,1712.8413598537445,None,./data/Subject_03/Session_02/Exp_data/2020_Jul_14_1215/rec_QA_run_02_block_001_trial_012.wav,,,,03,02,English,A2,True,False,True,False,False,True,True,True,True,True,True,True,No,2,No,No,No,No,2020_Jul_14_1215,nibs_stage_1,3.2.3,60.049622533727145,
2,0,2,0,,,,,1,0,1,0,13,0,13,0,,,,,,,,,,,,,,,,,,,,,,,,,,,,,,,,,,,,,,,,,,,,,,,,,Listen to the question and speak out your answer!,1715.9096329212189,None,1715.8903195381165,1717.9084408283234,Zuhause erzählt er seiner kleinen Schwester davon.,erzählt,1717.2914716243745,1720.4749789237976,1720.8583005905152,None,1732.4922536849976,None,1733.9089839458466,None,./data/Subject_03/Session_02/Exp_data/2020_Jul_14_1215/rec_QA_run_02_block_001_trial_013.wav,,,,03,02,English,A2,True,False,True,False,False,True,True,True,True,True,True,True,No,2,No,No,No,No,2020_Jul_14_1215,nibs_stage_1,3.2.3,60.049622533727145,
2,0,2,0,,,,,1,0,1,0,14,0,14,0,,,,,,,,,,,,,,,,,,,,,,,,,,,,,,,,,,,,,,,,,,,,,,,,,Listen to the question and speak out your answer!,1736.9442279338837,None,1736.9247245311738,1738.9425868988037,"Wir sollten in den Bus einsteigen, bevor er abfährt.",einsteigen,1738.3259266853333,1741.4094049930573,1741.7927175998689,None,1753.526675605774,1754.5434699058533,1754.9435489177704,None,./data/Subject_03/Session_02/Exp_data/2020_Jul_14_1215/rec_QA_run_02_block_001_trial_014.wav,,,,03,02,English,A2,True,False,True,False,False,True,True,True,True,True,True,True,No,2,No,No,No,No,2020_Jul_14_1215,nibs_stage_1,3.2.3,60.049622533727145,
2,0,2,0,,,,,1,0,1,0,15,0,15,0,,,,,,,,,,,,,,,,,,,,,,,,,,,,,,,,,,,,,,,,,,,,,,,,,Listen to the question and speak out your answer!,1758.010892868042,None,1757.9758298873903,1760.01034283638,Auf einer CD sind der Musik oder gesprochener Text gespeichert.,gespeichert,1759.3936425685883,None,1763.7937816619874,1764.8105869293213,1774.5944136619569,None,1776.0112719535828,None,./data/Subject_03/Session_02/Exp_data/2020_Jul_14_1215/rec_QA_run_02_block_001_trial_015.wav,,,,03,02,English,A2,True,False,True,False,False,True,True,True,True,True,True,True,No,2,No,No,No,No,2020_Jul_14_1215,nibs_stage_1,3.2.3,60.049622533727145,
2,0,2,0,,,,,1,0,1,0,16,0,16,0,,,,,,,,,,,,,,,,,,,,,,,,,,,,,,,,,,,,,,,,,,,,,,,,,Listen to the question and speak out your answer!,1779.046511888504,None,1779.0269155025483,1781.0447599887848,Wir sollen unsere Hände täglich aus Hygiene waschen.,waschen,1780.4280697345735,None,1784.1282457351685,None,1795.6291007041932,None,1797.0455849170685,None,./data/Subject_03/Session_02/Exp_data/2020_Jul_14_1215/rec_QA_run_02_block_001_trial_016.wav,,,,03,02,English,A2,True,False,True,False,False,True,True,True,True,True,True,True,No,2,No,No,No,No,2020_Jul_14_1215,nibs_stage_1,3.2.3,60.049622533727145,
2,0,2,0,,,,,1,0,1,0,17,0,17,0,,,,,,,,,,,,,,,,,,,,,,,,,,,,,,,,,,,,,,,,,,,,,,,,,Listen to the question and speak out your answer!,1800.0974538326263,None,1800.0780277729036,1802.0958409309387,Die Polizei hat die Einzelheiten des gestohlenen Autos auf einem Zettel notiert.,notiert,1801.479191684723,1806.3960618972778,1806.7794045448304,1807.7961399555206,1816.6799396514893,1817.6967589855194,1818.0966169834137,None,./data/Subject_03/Session_02/Exp_data/2020_Jul_14_1215/rec_QA_run_02_block_001_trial_017.wav,,,,03,02,English,A2,True,False,True,False,False,True,True,True,True,True,True,True,No,2,No,No,No,No,2020_Jul_14_1215,nibs_stage_1,3.2.3,60.049622533727145,
2,0,2,0,,,,,1,0,1,0,18,0,18,0,,,,,,,,,,,,,,,,,,,,,,,,,,,,,,,,,,,,,,,,,,,,,,,,,Listen to the question and speak out your answer!,1821.1808269023895,None,1821.1457564353943,1823.1802518367767,Die Reparatur wird um ein hundert Euro kosten.,kosten,1822.5303226947785,None,1825.8304065704347,1826.847128868103,1837.7310306072236,None,1839.1477708816528,None,./data/Subject_03/Session_02/Exp_data/2020_Jul_14_1215/rec_QA_run_02_block_001_trial_018.wav,,,,03,02,English,A2,True,False,True,False,False,True,True,True,True,True,True,True,No,2,No,No,No,No,2020_Jul_14_1215,nibs_stage_1,3.2.3,60.049622533727145,
2,0,2,0,,,,,1,0,1,0,19,0,19,0,,,,,,,,,,,,,,,,,,,,,,,,,,,,,,,,,,,,,,,,,,,,,,,,,Listen to the question and speak out your answer!,1842.2165908813477,None,1842.1969894886017,1844.2147209644318,"Bevor es Autos gab, sind die Leute mit der Eisenbahn gefahren.",gefahren,1843.5981036663056,None,1847.8315586090089,None,1858.799094581604,None,1860.2155499458313,None,./data/Subject_03/Session_02/Exp_data/2020_Jul_14_1215/rec_QA_run_02_block_001_trial_019.wav,,,,03,02,English,A2,True,False,True,False,False,True,True,True,True,True,True,True,No,2,No,No,No,No,2020_Jul_14_1215,nibs_stage_1,3.2.3,60.049622533727145,
2,0,2,0,,,,,1,0,1,0,20,0,20,0,,,,,,,,,,,,,,,,,,,,,,,,,,,,,,,,,,,,,,,,,,,,,,,,,Listen to the question and speak out your answer!,1863.249384880066,None,1863.2313534736634,1865.2491738796234,"Das Thema interessierte sie, daher hörte sie genau zu.",interessierte,1864.632495546341,None,1868.6994697093965,None,1879.8333086013795,1880.8499829769135,1881.2500178813934,None,./data/Subject_03/Session_02/Exp_data/2020_Jul_14_1215/rec_QA_run_02_block_001_trial_020.wav,,,,03,02,English,A2,True,False,True,False,False,True,True,True,True,True,True,True,No,2,No,No,No,No,2020_Jul_14_1215,nibs_stage_1,3.2.3,60.049622533727145,
2,0,2,0,,,,,1,0,1,0,21,0,21,0,,,,,,,,,,,,,,,,,,,,,,,,,,,,,,,,,,,,,,,,,,,,,,,,,Listen to the question and speak out your answer!,1884.3183598518372,None,1884.2990874767304,1886.3169808387756,Lisa tanzt im Ballett.,tanzt,1885.6669117450715,None,1887.6670056819917,None,1900.8677517414094,None,1902.2844610214233,None,./data/Subject_03/Session_02/Exp_data/2020_Jul_14_1215/rec_QA_run_02_block_001_trial_021.wav,,,,03,02,English,A2,True,False,True,False,False,True,True,True,True,True,True,True,No,2,No,No,No,No,2020_Jul_14_1215,nibs_stage_1,3.2.3,60.049622533727145,
2,0,2,0,,,,,1,0,1,0,22,0,22,0,,,,,,,,,,,,,,,,,,,,,,,,,,,,,,,,,,,,,,,,,,,,,,,,,Listen to the question and speak out your answer!,1905.3519818782806,None,1905.3167918205263,1907.351399898529,"Ich muss das Buch zurückgeben, das mir ein Freund geliehen hat.",geliehen,1906.734761619568,1910.418221950531,1910.8016475677491,1911.818207025528,1921.9355126857758,None,1923.352247953415,None,./data/Subject_03/Session_02/Exp_data/2020_Jul_14_1215/rec_QA_run_02_block_001_trial_022.wav,,,,03,02,English,A2,True,False,True,False,False,True,True,True,True,True,True,True,No,2,No,No,No,No,2020_Jul_14_1215,nibs_stage_1,3.2.3,60.049622533727145,
2,0,2,0,,,,,1,0,1,0,23,0,23,0,,,,,,,,,,,,,,,,,,,,,,,,,,,,,,,,,,,,,,,,,,,,,,,,,Listen to the question and speak out your answer!,1926.3863320350647,None,1926.3515277385713,1928.385845899582,Ich musste heute Morgen richtig schnell nach der Busstation laufen.,laufen,1927.7691766262055,1931.6194620132446,1932.0027896404267,None,1942.9699365139008,1943.9865899085999,1944.386960029602,None,./data/Subject_03/Session_02/Exp_data/2020_Jul_14_1215/rec_QA_run_02_block_001_trial_023.wav,,,,03,02,English,A2,True,False,True,False,False,True,True,True,True,True,True,True,No,2,No,No,No,No,2020_Jul_14_1215,nibs_stage_1,3.2.3,60.049622533727145,
2,0,2,0,,,,,1,0,1,0,24,0,24,0,,,,,,,,,,,,,,,,,,,,,,,,,,,,,,,,,,,,,,,,,,,,,,,,,Listen to the question and speak out your answer!,1947.4209299087524,None,1947.3856978893282,1949.4203560352325,Bitte waschen Sie Ihre Hände mit Seife.,waschen,1948.8036827087403,1951.3203959465027,1951.6704145908357,1952.6871318817139,1964.0043946743012,None,1965.4211468696594,None,./data/Subject_03/Session_02/Exp_data/2020_Jul_14_1215/rec_QA_run_02_block_001_trial_024.wav,,,,03,02,English,A2,True,False,True,False,False,True,True,True,True,True,True,True,No,2,No,No,No,No,2020_Jul_14_1215,nibs_stage_1,3.2.3,60.049622533727145,
2,0,2,0,,,,,1,0,1,0,,,,,,,,,,,,,,,,,,,,,,,,,,,,,,,,,,,,,,,,,,1969.4381120204926,None,,,,,,,,,,,,,,,,,,,,,,,,,,,,,03,02,English,A2,True,False,True,False,False,True,True,True,True,True,True,True,No,2,No,No,No,No,2020_Jul_14_1215,nibs_stage_1,3.2.3,60.049622533727145,
2,0,2,0,,,,,,,,,,,,,,,,,,,,,,,,,,,,,,,,,,,,,,,,,,,,,,,,,,,,,,,,,,,,,,,,,,,,,,,,,,,,,Please remain seated until further instruction via the earphone.,68.27288603782654,None,03,02,English,A2,True,False,True,False,False,True,True,True,True,True,True,True,No,2,No,No,No,No,2020_Jul_14_1215,nibs_stage_1,3.2.3,60.049622533727145,
