run.thisRepN,run.thisTrialN,run.thisN,run.thisIndex,QA_block.thisRepN,QA_block.thisTrialN,QA_block.thisN,QA_block.thisIndex,QA_trial.thisRepN,QA_trial.thisTrialN,QA_trial.thisN,QA_trial.thisIndex,fade_in_text.text,fade_in_text.started,fade_in_text.stopped,RS_intro_title.started,RS_intro_title.stopped,RS_intro_text.text,RS_intro_text.started,RS_intro_text.stopped,RS_intro_audio.started,RS_intro_audio.stopped,RS_rec_text.text,RS_rec_text.started,RS_rec_text.stopped,Pause_cont.started,Pause_cont.stopped,QA_intro_title.started,QA_intro_title.stopped,QA_intro_text.text,QA_intro_text.started,QA_intro_text.stopped,QA_intro_audio.started,QA_intro_audio.stopped,QA_intro_cont.started,QA_intro_cont.stopped,QA_rec_text.text,QA_rec_text.started,QA_rec_text.stopped,QA_rec_beep_hint.started,QA_rec_beep_hint.stopped,QA_rec_question.sen_text,QA_rec_question.cen_text,QA_rec_question.started,QA_rec_question.stopped,QA_rec_beep_start.started,QA_rec_beep_start.stopped,QA_rec_beep_end.started,QA_rec_beep_end.stopped,QA_rec_break.started,QA_rec_break.stopped,filename,participant,session,First language,German level,Full_screen,Instruction,Intro,Artifact,Cali_pre,Fade_in_out,Artifact_within,Resting_State,QA,Pause,Cali_post,End,Breakpoint_Cali_pre_trial,Breakpoint_Run,Breakpoint_RS_block,Breakpoint_QA_block,Breakpoint_QA_trial,Breakpoint_Cali_post_trial,date,expName,psychopyVersion,frameRate,
0,0,0,0,0,0,0,0,0,0,0,0,Please remain seated until further instruction via the earphone.,73.23823094367981,None,282.69885993003845,None," - Task: Keep seated and relaxed with either      
             opening or closing eyes                  
 - Beep sound with decreasing pitch: Block finish 
",282.69885993003845,None,282.68035531044006,None,"Please keep relaxed and close your eyes.
",305.73348784446716,485.74299693107605,489.1096160411835,None,504.64386200904846,None," - Task: Listen to the question& Speak out answer 
 - Melodious beep sound: Trial start              
 - Silent sound (blank): censored word            
 - Beep sound with increasing pitch: Rec. start   
 - Beep sound with decreasing pitch: Rec. finish  
",504.64386200904846,None,504.6236718893051,None,544.029058933258,None,Listen to the question and speak out your answer!,547.1465289592743,None,547.1257756948471,549.1292848587036,"Wir müssen genau planen, was wir tun wollen.",planen,548.529404759407,551.179398059845,551.5961087942123,552.5962648391724,563.730024933815,564.7302730083466,565.163712978363,None,./data/Subject_04/Session_00/Exp_data/2020_Jul_04_1519/rec_QA_run_00_block_000_trial_000.wav,04,00,Norwegian,B1,True,False,True,False,False,True,True,True,True,True,True,True,No,No,No,No,No,No,2020_Jul_04_1519,nibs_stage_1,3.2.3,59.956401104124176,
0,0,0,0,0,0,0,0,1,0,1,0,,,,,,,,,,,,,,,,,,,,,,,,,Listen to the question and speak out your answer!,568.1987709999084,None,568.1784332990646,570.1803679466248,"Wenn Sie mit diesem Produkt nicht zufrieden sind, können wir eine Alternative anbieten.",anbieten,569.5638169050217,None,574.8805948495865,575.8807430267334,584.7645238637924,None,586.1646058559418,587.1647629737854,./data/Subject_04/Session_00/Exp_data/2020_Jul_04_1519/rec_QA_run_00_block_000_trial_001.wav,04,00,Norwegian,B1,True,False,True,False,False,True,True,True,True,True,True,True,No,No,No,No,No,No,2020_Jul_04_1519,nibs_stage_1,3.2.3,59.956401104124176,
0,0,0,0,0,0,0,0,2,0,2,0,,,,,,,,,,,,,,,,,,,,,,,,,Listen to the question and speak out your answer!,589.2318680286407,None,589.2125294208527,591.2151339054108,"Nach einem Match hat sie keine Stimme mehr,  weil sie so laut schreit.",schreit,590.6152719259262,None,594.8486169576645,None,605.8158277273178,None,607.2159368991852,608.2160129547119,./data/Subject_04/Session_00/Exp_data/2020_Jul_04_1519/rec_QA_run_00_block_000_trial_002.wav,04,00,Norwegian,B1,True,False,True,False,False,True,True,True,True,True,True,True,No,No,No,No,No,No,2020_Jul_04_1519,nibs_stage_1,3.2.3,59.956401104124176,
0,0,0,0,0,0,0,0,3,0,3,0,,,,,,,,,,,,,,,,,,,,,,,,,Listen to the question and speak out your answer!,610.2828030586243,None,610.26382625103,612.2662138938904,"Sie hat den Newsletter abonniert, um weitere Informationen zu erhalten.",abonniert,611.6659427881241,615.9829540252686,616.3664237260818,617.3665020465851,626.8667107820511,627.8834609985352,628.2835049629211,None,./data/Subject_04/Session_00/Exp_data/2020_Jul_04_1519/rec_QA_run_00_block_000_trial_003.wav,04,00,Norwegian,B1,True,False,True,False,False,True,True,True,True,True,True,True,No,No,No,No,No,No,2020_Jul_04_1519,nibs_stage_1,3.2.3,59.956401104124176,
0,0,0,0,0,0,0,0,4,0,4,0,,,,,,,,,,,,,,,,,,,,,,,,,Listen to the question and speak out your answer!,631.350625038147,None,631.3314462900162,633.350399017334,Die Armbanduhr ist aus rostfreiem Stahl gefertigt und wird nicht rosten.,rosten,632.7003568410873,None,637.433916926384,None,647.9011439085007,None,649.3178958892822,None,./data/Subject_04/Session_00/Exp_data/2020_Jul_04_1519/rec_QA_run_00_block_000_trial_004.wav,04,00,Norwegian,B1,True,False,True,False,False,True,True,True,True,True,True,True,No,No,No,No,No,No,2020_Jul_04_1519,nibs_stage_1,3.2.3,59.956401104124176,
0,0,0,0,0,0,0,0,5,0,5,0,,,,,,,,,,,,,,,,,,,,,,,,,Listen to the question and speak out your answer!,652.3689410686493,None,652.3491144180298,654.3681690692902,Jeden Tag lesen wir die Zeitung.,lesen,653.7514449357986,656.0015728473663,656.3849228620529,None,668.9523657560349,None,670.3689868450165,None,./data/Subject_04/Session_00/Exp_data/2020_Jul_04_1519/rec_QA_run_00_block_000_trial_005.wav,04,00,Norwegian,B1,True,False,True,False,False,True,True,True,True,True,True,True,No,No,No,No,No,No,2020_Jul_04_1519,nibs_stage_1,3.2.3,59.956401104124176,
0,0,0,0,0,0,0,0,6,0,6,0,,,,,,,,,,,,,,,,,,,,,,,,,Listen to the question and speak out your answer!,673.4364109039307,None,673.4168802499771,675.4359078407288,"Es dauerte lange, alle nötigen Informationen zu sammeln.",sammeln,674.8192638158798,678.4363439083099,678.8193987607956,679.8361549377441,690.0200618505478,691.0367169380188,691.4367599487305,None,./data/Subject_04/Session_00/Exp_data/2020_Jul_04_1519/rec_QA_run_00_block_000_trial_006.wav,04,00,Norwegian,B1,True,False,True,False,False,True,True,True,True,True,True,True,No,No,No,No,No,No,2020_Jul_04_1519,nibs_stage_1,3.2.3,59.956401104124176,
0,0,0,0,0,0,0,0,7,0,7,0,,,,,,,,,,,,,,,,,,,,,,,,,Listen to the question and speak out your answer!,694.5044040679932,None,694.4846371412277,696.5036749839783,Das Unternehmen wird nächste Woche die Jahresprämie bezahlen.,bezahlen,695.8869658708572,699.5706429481506,699.9538418054581,None,711.0877538919449,712.1044929027557,712.5045330524445,None,./data/Subject_04/Session_00/Exp_data/2020_Jul_04_1519/rec_QA_run_00_block_000_trial_007.wav,04,00,Norwegian,B1,True,False,True,False,False,True,True,True,True,True,True,True,No,No,No,No,No,No,2020_Jul_04_1519,nibs_stage_1,3.2.3,59.956401104124176,
0,0,0,0,0,0,0,0,8,0,8,0,,,,,,,,,,,,,,,,,,,,,,,,,Listen to the question and speak out your answer!,715.5730359554291,None,715.5524011850357,717.5713930130005,Wo werden Sie Urlaub machen?,machen,716.9547437429428,None,719.0215028524399,None,732.1555107831955,733.1722528934479,733.5722708702087,None,./data/Subject_04/Session_00/Exp_data/2020_Jul_04_1519/rec_QA_run_00_block_000_trial_008.wav,04,00,Norwegian,B1,True,False,True,False,False,True,True,True,True,True,True,True,No,No,No,No,No,No,2020_Jul_04_1519,nibs_stage_1,3.2.3,59.956401104124176,
0,0,0,0,0,0,0,0,9,0,9,0,,,,,,,,,,,,,,,,,,,,,,,,,Listen to the question and speak out your answer!,736.6407968997955,None,736.6201432943344,738.6392078399658,Paul hat zum Abendessen Kartoffelsuppe gegessen.,gegessen,738.0224968194962,741.0393469333649,741.4226747751236,None,753.2232829332352,None,754.6399538516998,None,./data/Subject_04/Session_00/Exp_data/2020_Jul_04_1519/rec_QA_run_00_block_000_trial_009.wav,04,00,Norwegian,B1,True,False,True,False,False,True,True,True,True,True,True,True,No,No,No,No,No,No,2020_Jul_04_1519,nibs_stage_1,3.2.3,59.956401104124176,
0,0,0,0,0,0,0,0,10,0,10,0,,,,,,,,,,,,,,,,,,,,,,,,,Listen to the question and speak out your answer!,757.7086489200592,None,757.687900185585,759.7069790363312,"Um den Bus noch zu erwischen, musste ich heute Morgen sehr schnell laufen.",laufen,759.0902708768845,None,763.523808836937,None,774.2910357713699,775.3078038692474,775.7078289985657,None,./data/Subject_04/Session_00/Exp_data/2020_Jul_04_1519/rec_QA_run_00_block_000_trial_010.wav,04,00,Norwegian,B1,True,False,True,False,False,True,True,True,True,True,True,True,No,No,No,No,No,No,2020_Jul_04_1519,nibs_stage_1,3.2.3,59.956401104124176,
0,0,0,0,0,0,0,0,11,0,11,0,,,,,,,,,,,,,,,,,,,,,,,,,Listen to the question and speak out your answer!,778.7585608959198,None,778.7390184402466,780.7580759525299,"Wenn das Klima immer wärmer wird, werden auch die Gletscher schmelzen.",schmelzen,780.1413439512253,783.9251589775085,784.3082457780838,None,795.3588639497757,None,796.7755949497223,None,./data/Subject_04/Session_00/Exp_data/2020_Jul_04_1519/rec_QA_run_00_block_000_trial_011.wav,04,00,Norwegian,B1,True,False,True,False,False,True,True,True,True,True,True,True,No,No,No,No,No,No,2020_Jul_04_1519,nibs_stage_1,3.2.3,59.956401104124176,
0,0,0,0,0,0,0,0,12,0,12,0,,,,,,,,,,,,,,,,,,,,,,,,,Listen to the question and speak out your answer!,799.8091440200806,None,799.7734682559967,801.8091609477997,"Ich möchte, dass Sie das Wort mit Ihren eigenen Worten erklären!",erklären,801.1924468278885,805.042909860611,805.4260967969894,None,816.393425822258,None,817.8101940155029,None,./data/Subject_04/Session_00/Exp_data/2020_Jul_04_1519/rec_QA_run_00_block_000_trial_012.wav,04,00,Norwegian,B1,True,False,True,False,False,True,True,True,True,True,True,True,No,No,No,No,No,No,2020_Jul_04_1519,nibs_stage_1,3.2.3,59.956401104124176,
0,0,0,0,0,0,0,0,13,0,13,0,,,,,,,,,,,,,,,,,,,,,,,,,Listen to the question and speak out your answer!,820.8444330692291,None,820.8246062994003,822.843672990799,Die sieben kleinen Äpfel sollen ungefähr zwei Kilo wiegen.,wiegen,822.2269507646561,None,826.2604957818985,827.2772369384766,837.4277619123459,838.4444739818573,838.8445060253143,None,./data/Subject_04/Session_00/Exp_data/2020_Jul_04_1519/rec_QA_run_00_block_000_trial_013.wav,04,00,Norwegian,B1,True,False,True,False,False,True,True,True,True,True,True,True,No,No,No,No,No,No,2020_Jul_04_1519,nibs_stage_1,3.2.3,59.956401104124176,
0,0,0,0,0,0,0,0,14,0,14,0,,,,,,,,,,,,,,,,,,,,,,,,,Listen to the question and speak out your answer!,841.9113669395447,None,841.8757584095001,843.9115359783173,"Eric ist ein guter Fahrer, obwohl er gerade erst seinen Führerschein gemacht hat.",gemacht,843.2947138547897,848.1783199310303,848.5616728067398,None,858.4955059289932,None,859.9122629165649,None,./data/Subject_04/Session_00/Exp_data/2020_Jul_04_1519/rec_QA_run_00_block_000_trial_014.wav,04,00,Norwegian,B1,True,False,True,False,False,True,True,True,True,True,True,True,No,No,No,No,No,No,2020_Jul_04_1519,nibs_stage_1,3.2.3,59.956401104124176,
0,0,0,0,0,0,0,0,15,0,15,0,,,,,,,,,,,,,,,,,,,,,,,,,Listen to the question and speak out your answer!,862.9289638996124,None,862.9100654125214,864.9291908740997,Sie hat den Kuchen in einer runden Form gebacken.,gebacken,864.3123227357864,867.1626448631287,867.5458089113235,None,879.5131958723068,None,880.9299728870392,None,./data/Subject_04/Session_00/Exp_data/2020_Jul_04_1519/rec_QA_run_00_block_000_trial_015.wav,04,00,Norwegian,B1,True,False,True,False,False,True,True,True,True,True,True,True,No,No,No,No,No,No,2020_Jul_04_1519,nibs_stage_1,3.2.3,59.956401104124176,
0,0,0,0,0,0,0,0,16,0,16,0,,,,,,,,,,,,,,,,,,,,,,,,,Listen to the question and speak out your answer!,883.9803490638733,None,883.9611704349518,885.9801690578461,Wer soll den Geschirrspüler einräumen?,einräumen,885.3634968996048,None,887.9636157751083,888.9803729057312,900.5642668008804,None,901.9809648990631,None,./data/Subject_04/Session_00/Exp_data/2020_Jul_04_1519/rec_QA_run_00_block_000_trial_016.wav,04,00,Norwegian,B1,True,False,True,False,False,True,True,True,True,True,True,True,No,No,No,No,No,No,2020_Jul_04_1519,nibs_stage_1,3.2.3,59.956401104124176,
0,0,0,0,0,0,0,0,17,0,17,0,,,,,,,,,,,,,,,,,,,,,,,,,Listen to the question and speak out your answer!,905.0480918884277,None,905.0289171934128,907.047975063324,Ein gutes Gehalt heißt oft harte Arbeit.,heißt,906.4312378168106,909.1814079284668,909.564750790596,None,921.6320959329605,None,923.0489139556885,None,./data/Subject_04/Session_00/Exp_data/2020_Jul_04_1519/rec_QA_run_00_block_000_trial_017.wav,04,00,Norwegian,B1,True,False,True,False,False,True,True,True,True,True,True,True,No,No,No,No,No,No,2020_Jul_04_1519,nibs_stage_1,3.2.3,59.956401104124176,
0,0,0,0,0,0,0,0,18,0,18,0,,,,,,,,,,,,,,,,,,,,,,,,,Listen to the question and speak out your answer!,926.1161868572235,None,926.0800123214722,928.1157259941101,"Ich bin der Überzeugung, dass er es rechtzeitig schaffen kann.",schaffen,927.4989138841629,931.1159060001373,931.4658857584,932.4826369285583,942.6997908353806,None,944.1165549755096,None,./data/Subject_04/Session_00/Exp_data/2020_Jul_04_1519/rec_QA_run_00_block_000_trial_018.wav,04,00,Norwegian,B1,True,False,True,False,False,True,True,True,True,True,True,True,No,No,No,No,No,No,2020_Jul_04_1519,nibs_stage_1,3.2.3,59.956401104124176,
0,0,0,0,0,0,0,0,19,0,19,0,,,,,,,,,,,,,,,,,,,,,,,,,Listen to the question and speak out your answer!,947.1500568389893,None,947.1310902833939,949.1503050327301,"Ich berichtete der Polizei alles, was ich gesehen hatte.",berichtete,948.5334528684616,952.0169739723206,952.4002479314804,None,963.7176088094711,None,965.1342940330505,None,./data/Subject_04/Session_00/Exp_data/2020_Jul_04_1519/rec_QA_run_00_block_000_trial_019.wav,04,00,Norwegian,B1,True,False,True,False,False,True,True,True,True,True,True,True,No,No,No,No,No,No,2020_Jul_04_1519,nibs_stage_1,3.2.3,59.956401104124176,
0,0,0,0,0,0,0,0,20,0,20,0,,,,,,,,,,,,,,,,,,,,,,,,,Listen to the question and speak out your answer!,968.2013380527496,None,968.18219435215,970.201248884201,Wir freuen uns von Herzen über seine ausgezeichnete Leistung.,freuen,969.5845328569412,None,973.8847409486771,974.9015100002289,984.7853268384933,None,986.2020928859711,None,./data/Subject_04/Session_00/Exp_data/2020_Jul_04_1519/rec_QA_run_00_block_000_trial_020.wav,04,00,Norwegian,B1,True,False,True,False,False,True,True,True,True,True,True,True,No,No,No,No,No,No,2020_Jul_04_1519,nibs_stage_1,3.2.3,59.956401104124176,
0,0,0,0,0,0,0,0,21,0,21,0,,,,,,,,,,,,,,,,,,,,,,,,,Listen to the question and speak out your answer!,989.2694909572601,None,989.2333142757416,991.2689960002899,"Wissen Sie, wer als erster Bergsteiger den Mount Everest bestiegen hat?",bestiegen,990.652300953865,995.0358998775482,995.4191888570786,None,1005.853080868721,None,1007.2698390483856,None,./data/Subject_04/Session_00/Exp_data/2020_Jul_04_1519/rec_QA_run_00_block_000_trial_021.wav,04,00,Norwegian,B1,True,False,True,False,False,True,True,True,True,True,True,True,No,No,No,No,No,No,2020_Jul_04_1519,nibs_stage_1,3.2.3,59.956401104124176,
0,0,0,0,0,0,0,0,22,0,22,0,,,,,,,,,,,,,,,,,,,,,,,,,Listen to the question and speak out your answer!,1010.3036799430847,None,1010.2843862771988,1012.3034539222717,Ich kümmere mich nicht um die Reden der Leute.,kümmere,1011.6867369413376,None,1014.6202107667923,None,1026.8875328302383,1027.904275894165,1028.3042600154877,None,./data/Subject_04/Session_00/Exp_data/2020_Jul_04_1519/rec_QA_run_00_block_000_trial_022.wav,04,00,Norwegian,B1,True,False,True,False,False,True,True,True,True,True,True,True,No,No,No,No,No,No,2020_Jul_04_1519,nibs_stage_1,3.2.3,59.956401104124176,
0,0,0,0,0,0,0,0,23,0,23,0,,,,,,,,,,,,,,,,,,,,,,,,,Listen to the question and speak out your answer!,1031.3714010715485,None,1031.3521181344986,1033.3711400032043,Ich höre sie den Namen Sam rufen.,rufen,1032.7544969320297,None,1035.3879429101944,None,1047.9553087949753,1048.9720349311829,1049.3720219135284,None,./data/Subject_04/Session_00/Exp_data/2020_Jul_04_1519/rec_QA_run_00_block_000_trial_023.wav,04,00,Norwegian,B1,True,False,True,False,False,True,True,True,True,True,True,True,No,No,No,No,No,No,2020_Jul_04_1519,nibs_stage_1,3.2.3,59.956401104124176,
0,0,0,0,0,0,0,0,24,0,24,0,,,,,,,,,,,,,,,,,,,,,,,,,Listen to the question and speak out your answer!,1052.4395320415497,None,1052.4199072122574,1054.4389669895172,Bitte zahlen Sie an Kasse Nummer Zwei.,zahlen,1053.8222478628159,None,1056.7223199605942,None,1069.0230387449265,1070.0397908687592,1070.4398210048676,None,./data/Subject_04/Session_00/Exp_data/2020_Jul_04_1519/rec_QA_run_00_block_000_trial_024.wav,04,00,Norwegian,B1,True,False,True,False,False,True,True,True,True,True,True,True,No,No,No,No,No,No,2020_Jul_04_1519,nibs_stage_1,3.2.3,59.956401104124176,
0,0,0,0,0,0,0,0,,,,,,,,,,,,,,,,,,1074.4566979408264,None,,,,,,,,,,,,,,,,,,,,,,,,,,04,00,Norwegian,B1,True,False,True,False,False,True,True,True,True,True,True,True,No,No,No,No,No,No,2020_Jul_04_1519,nibs_stage_1,3.2.3,59.956401104124176,
0,0,0,0,1,0,1,0,0,0,0,0,,,,,,,,,,,,,,,,,,,,,,,,,Listen to the question and speak out your answer!,1094.6084039211273,None,1094.5876594781876,1096.6078000068665,"Wir bleiben heute zu Hause, weil wir zu müde sind.",bleiben,1095.9910949468613,None,1099.6579469442368,None,1111.1919897794724,1112.2087008953094,1112.6087560653687,None,./data/Subject_04/Session_00/Exp_data/2020_Jul_04_1519/rec_QA_run_00_block_001_trial_000.wav,04,00,Norwegian,B1,True,False,True,False,False,True,True,True,True,True,True,True,No,No,No,No,No,No,2020_Jul_04_1519,nibs_stage_1,3.2.3,59.956401104124176,
0,0,0,0,1,0,1,0,1,0,1,0,,,,,,,,,,,,,,,,,,,,,,,,,Listen to the question and speak out your answer!,1115.67586684227,None,1115.6566182374954,1117.6755919456482,Beim Spinat und Kohl wird man die Blätter essen.,essen,1117.05896794796,None,1120.2591208219528,None,1132.2597678899765,None,1133.676512002945,None,./data/Subject_04/Session_00/Exp_data/2020_Jul_04_1519/rec_QA_run_00_block_001_trial_001.wav,04,00,Norwegian,B1,True,False,True,False,False,True,True,True,True,True,True,True,No,No,No,No,No,No,2020_Jul_04_1519,nibs_stage_1,3.2.3,59.956401104124176,
0,0,0,0,1,0,1,0,2,0,2,0,,,,,,,,,,,,,,,,,,,,,,,,,Listen to the question and speak out your answer!,1136.71027302742,None,1136.6910732984543,1138.710121870041,Das Brot vom Bäcker schmeckt viel besser.,schmeckt,1138.0934017896652,1140.610251903534,1140.9934757947922,None,1153.2941898107529,None,1154.7109439373016,None,./data/Subject_04/Session_00/Exp_data/2020_Jul_04_1519/rec_QA_run_00_block_001_trial_002.wav,04,00,Norwegian,B1,True,False,True,False,False,True,True,True,True,True,True,True,No,No,No,No,No,No,2020_Jul_04_1519,nibs_stage_1,3.2.3,59.956401104124176,
0,0,0,0,1,0,1,0,3,0,3,0,,,,,,,,,,,,,,,,,,,,,,,,,Listen to the question and speak out your answer!,1157.744971036911,None,1157.725466132164,1159.7445359230042,Im ganzen Umkreis war kein Haus zu finden.,finden,1159.1277269124985,None,1162.2945679426193,1163.3112878799438,1174.3285249471664,1175.3452670574188,1175.7452838420868,None,./data/Subject_04/Session_00/Exp_data/2020_Jul_04_1519/rec_QA_run_00_block_001_trial_003.wav,04,00,Norwegian,B1,True,False,True,False,False,True,True,True,True,True,True,True,No,No,No,No,No,No,2020_Jul_04_1519,nibs_stage_1,3.2.3,59.956401104124176,
0,0,0,0,1,0,1,0,4,0,4,0,,,,,,,,,,,,,,,,,,,,,,,,,Listen to the question and speak out your answer!,1178.8136818408966,None,1178.793171286583,1180.8122119903564,"Im Unterricht habe ich das Wichtige notiert, was der Lehrer gesagt.",notiert,1180.1954828500748,None,1184.662388920784,1185.6791429519653,1195.3796297311783,None,1196.7963888645172,None,./data/Subject_04/Session_00/Exp_data/2020_Jul_04_1519/rec_QA_run_00_block_001_trial_004.wav,04,00,Norwegian,B1,True,False,True,False,False,True,True,True,True,True,True,True,No,No,No,No,No,No,2020_Jul_04_1519,nibs_stage_1,3.2.3,59.956401104124176,
0,0,0,0,1,0,1,0,5,0,5,0,,,,,,,,,,,,,,,,,,,,,,,,,Listen to the question and speak out your answer!,1199.863520860672,None,1199.8441642522812,1201.8633370399475,Er hat eine gerade Linie von einem Punkt zum anderen gezogen.,gezogen,1201.213257908821,1204.8968060016632,1205.3134769201279,1206.3302109241486,1216.4140537977219,1217.43079996109,1217.8308169841766,None,./data/Subject_04/Session_00/Exp_data/2020_Jul_04_1519/rec_QA_run_00_block_001_trial_005.wav,04,00,Norwegian,B1,True,False,True,False,False,True,True,True,True,True,True,True,No,No,No,No,No,No,2020_Jul_04_1519,nibs_stage_1,3.2.3,59.956401104124176,
0,0,0,0,1,0,1,0,6,0,6,0,,,,,,,,,,,,,,,,,,,,,,,,,Listen to the question and speak out your answer!,1220.8978788852692,None,1220.8786772489548,1222.8977398872375,"Ja, das Wasser aus der Leitung kann man trinken.",trinken,1222.2810288667679,None,1225.581193804741,None,1237.481810927391,None,1238.8985948562622,None,./data/Subject_04/Session_00/Exp_data/2020_Jul_04_1519/rec_QA_run_00_block_001_trial_006.wav,04,00,Norwegian,B1,True,False,True,False,False,True,True,True,True,True,True,True,No,No,No,No,No,No,2020_Jul_04_1519,nibs_stage_1,3.2.3,59.956401104124176,
0,0,0,0,1,0,1,0,7,0,7,0,,,,,,,,,,,,,,,,,,,,,,,,,Listen to the question and speak out your answer!,1241.9656538963318,None,1241.9464472532272,1243.965488910675,Die Katzen jagen Mäuse.,jagen,1243.3486808538437,None,1245.5155507326126,None,1258.5495878458023,1259.5664160251617,1259.966304063797,None,./data/Subject_04/Session_00/Exp_data/2020_Jul_04_1519/rec_QA_run_00_block_001_trial_007.wav,04,00,Norwegian,B1,True,False,True,False,False,True,True,True,True,True,True,True,No,No,No,No,No,No,2020_Jul_04_1519,nibs_stage_1,3.2.3,59.956401104124176,
0,0,0,0,1,0,1,0,8,0,8,0,,,,,,,,,,,,,,,,,,,,,,,,,Listen to the question and speak out your answer!,1263.000499010086,None,1262.9643392562866,1265.0000660419464,"„Ich heiße Sam“, war der erste Satz, den er in großen Buchstaben schreiben konnte.",schreiben,1264.3832179307938,None,1269.7501608133316,None,1279.5840338468552,None,1281.0008339881897,None,./data/Subject_04/Session_00/Exp_data/2020_Jul_04_1519/rec_QA_run_00_block_001_trial_008.wav,04,00,Norwegian,B1,True,False,True,False,False,True,True,True,True,True,True,True,No,No,No,No,No,No,2020_Jul_04_1519,nibs_stage_1,3.2.3,59.956401104124176,
0,0,0,0,1,0,1,0,9,0,9,0,,,,,,,,,,,,,,,,,,,,,,,,,Listen to the question and speak out your answer!,1284.0348808765411,None,1283.9986264705658,1286.0343630313873,An unserem Baum hängen viele reife Birnen,hängen,1285.4175497293472,1288.2678020000458,1288.6511398553848,None,1300.6184307336807,1301.6351640224457,1302.0352909564972,None,./data/Subject_04/Session_00/Exp_data/2020_Jul_04_1519/rec_QA_run_00_block_001_trial_009.wav,04,00,Norwegian,B1,True,False,True,False,False,True,True,True,True,True,True,True,No,No,No,No,No,No,2020_Jul_04_1519,nibs_stage_1,3.2.3,59.956401104124176,
0,0,0,0,1,0,1,0,10,0,10,0,,,,,,,,,,,,,,,,,,,,,,,,,Listen to the question and speak out your answer!,1305.0690009593964,None,1305.049701333046,1307.0688030719757,Das Bild kann mir die Uhrzeitangabe verstehen helfen.,helfen,1306.452073931694,None,1310.018957734108,1311.035728931427,1321.6528619527817,None,1323.069612979889,None,./data/Subject_04/Session_00/Exp_data/2020_Jul_04_1519/rec_QA_run_00_block_001_trial_010.wav,04,00,Norwegian,B1,True,False,True,False,False,True,True,True,True,True,True,True,No,No,No,No,No,No,2020_Jul_04_1519,nibs_stage_1,3.2.3,59.956401104124176,
0,0,0,0,1,0,1,0,11,0,11,0,,,,,,,,,,,,,,,,,,,,,,,,,Listen to the question and speak out your answer!,1326.1050939559937,None,1326.0841633081436,1328.1032860279083,Bitte nimm meinen Mantel mit in die Garderobe.,nimm,1327.4865077733994,1330.2033288478851,1330.553316950798,None,1342.6872898340225,1343.704031944275,1344.1040749549866,None,./data/Subject_04/Session_00/Exp_data/2020_Jul_04_1519/rec_QA_run_00_block_001_trial_011.wav,04,00,Norwegian,B1,True,False,True,False,False,True,True,True,True,True,True,True,No,No,No,No,No,No,2020_Jul_04_1519,nibs_stage_1,3.2.3,59.956401104124176,
0,0,0,0,1,0,1,0,12,0,12,0,,,,,,,,,,,,,,,,,,,,,,,,,Listen to the question and speak out your answer!,1347.1881878376007,None,1347.1518963575363,1349.1876499652863,"Siehst du! Ich habe dir gesagt, dass es regnen würde.",gesagt,1348.537519812584,1351.9547469615936,1352.3711458444595,None,1363.7383898496628,None,1365.155138015747,None,./data/Subject_04/Session_00/Exp_data/2020_Jul_04_1519/rec_QA_run_00_block_001_trial_012.wav,04,00,Norwegian,B1,True,False,True,False,False,True,True,True,True,True,True,True,No,No,No,No,No,No,2020_Jul_04_1519,nibs_stage_1,3.2.3,59.956401104124176,
0,0,0,0,1,0,1,0,13,0,13,0,,,,,,,,,,,,,,,,,,,,,,,,,Listen to the question and speak out your answer!,1368.2058598995209,None,1368.1697064638138,1370.2057049274445,Das Herz kann Blut durch den Körper pumpen.,pumpen,1369.5553678274155,None,1372.5888468027115,None,1384.7561548948288,None,1386.1729049682617,None,./data/Subject_04/Session_00/Exp_data/2020_Jul_04_1519/rec_QA_run_00_block_001_trial_013.wav,04,00,Norwegian,B1,True,False,True,False,False,True,True,True,True,True,True,True,No,No,No,No,No,No,2020_Jul_04_1519,nibs_stage_1,3.2.3,59.956401104124176,
0,0,0,0,1,0,1,0,14,0,14,0,,,,,,,,,,,,,,,,,,,,,,,,,Listen to the question and speak out your answer!,1389.2414908409119,None,1389.2206822633743,1391.239837884903,Tim sammelt Briefmarken und Münzen.,sammelt,1390.623226761818,1393.0732679367065,1393.456615805626,None,1405.8240288496017,None,1407.2408020496368,None,./data/Subject_04/Session_00/Exp_data/2020_Jul_04_1519/rec_QA_run_00_block_001_trial_014.wav,04,00,Norwegian,B1,True,False,True,False,False,True,True,True,True,True,True,True,No,No,No,No,No,No,2020_Jul_04_1519,nibs_stage_1,3.2.3,59.956401104124176,
0,0,0,0,1,0,1,0,15,0,15,0,,,,,,,,,,,,,,,,,,,,,,,,,Listen to the question and speak out your answer!,1410.3248479366302,None,1410.2884513139725,1412.324185848236,Das Programm kannst Du kostenlos herunterladen.,herunterladen,1411.7075449228287,1414.62459897995,1415.0077248811722,None,1426.9082587957382,1427.9250938892365,1428.3250629901886,None,./data/Subject_04/Session_00/Exp_data/2020_Jul_04_1519/rec_QA_run_00_block_001_trial_015.wav,04,00,Norwegian,B1,True,False,True,False,False,True,True,True,True,True,True,True,No,No,No,No,No,No,2020_Jul_04_1519,nibs_stage_1,3.2.3,59.956401104124176,
0,0,0,0,1,0,1,0,16,0,16,0,,,,,,,,,,,,,,,,,,,,,,,,,Listen to the question and speak out your answer!,1431.375930070877,None,1431.3396612405777,1433.375314950943,Der Bus fährt jede Stunde.,fährt,1432.7588807344437,1434.675444841385,1435.058868765831,None,1447.95945084095,None,1449.3761959075928,None,./data/Subject_04/Session_00/Exp_data/2020_Jul_04_1519/rec_QA_run_00_block_001_trial_016.wav,04,00,Norwegian,B1,True,False,True,False,False,True,True,True,True,True,True,True,No,No,No,No,No,No,2020_Jul_04_1519,nibs_stage_1,3.2.3,59.956401104124176,
0,0,0,0,1,0,1,0,17,0,17,0,,,,,,,,,,,,,,,,,,,,,,,,,Listen to the question and speak out your answer!,1452.4264318943024,None,1452.390770316124,1454.4264590740204,"Kollegen versammelt sich zusammen, um ein neues Projekt zu planen.",planen,1453.7765718698502,None,1458.2433129549026,None,1468.977173924446,1469.9939529895782,1470.3940069675446,None,./data/Subject_04/Session_00/Exp_data/2020_Jul_04_1519/rec_QA_run_00_block_001_trial_017.wav,04,00,Norwegian,B1,True,False,True,False,False,True,True,True,True,True,True,True,No,No,No,No,No,No,2020_Jul_04_1519,nibs_stage_1,3.2.3,59.956401104124176,
0,0,0,0,1,0,1,0,18,0,18,0,,,,,,,,,,,,,,,,,,,,,,,,,Listen to the question and speak out your answer!,1473.4624948501587,None,1473.4418331384659,1475.4609160423279,Der Läufer hat seine Konkurrenten mühelos geschlagen.,geschlagen,1474.8441959619522,1477.9943490028381,1478.3776799440384,1479.3944380283356,1490.0449608564377,None,1491.4617080688477,None,./data/Subject_04/Session_00/Exp_data/2020_Jul_04_1519/rec_QA_run_00_block_001_trial_018.wav,04,00,Norwegian,B1,True,False,True,False,False,True,True,True,True,True,True,True,No,No,No,No,No,No,2020_Jul_04_1519,nibs_stage_1,3.2.3,59.956401104124176,
0,0,0,0,1,0,1,0,19,0,19,0,,,,,,,,,,,,,,,,,,,,,,,,,Listen to the question and speak out your answer!,1494.4959008693695,None,1494.4595983028412,1496.4953339099884,Trotz meines Verbots hat er sein Auto vor meinem Haus geparkt.,geparkt,1495.8786438703537,1499.5954818725586,1499.97893679142,None,1511.0626858472824,None,1512.4795229434967,None,./data/Subject_04/Session_00/Exp_data/2020_Jul_04_1519/rec_QA_run_00_block_001_trial_019.wav,04,00,Norwegian,B1,True,False,True,False,False,True,True,True,True,True,True,True,No,No,No,No,No,No,2020_Jul_04_1519,nibs_stage_1,3.2.3,59.956401104124176,
0,0,0,0,1,0,1,0,20,0,20,0,,,,,,,,,,,,,,,,,,,,,,,,,Listen to the question and speak out your answer!,1515.5469579696655,None,1515.527478337288,1517.5464038848877,Ich liebe würzige Saucen. ,liebe,1516.9296969175339,1518.7798540592194,1519.1297968626022,None,1532.1304959058762,None,1533.5472869873047,None,./data/Subject_04/Session_00/Exp_data/2020_Jul_04_1519/rec_QA_run_00_block_001_trial_020.wav,04,00,Norwegian,B1,True,False,True,False,False,True,True,True,True,True,True,True,No,No,No,No,No,No,2020_Jul_04_1519,nibs_stage_1,3.2.3,59.956401104124176,
0,0,0,0,1,0,1,0,21,0,21,0,,,,,,,,,,,,,,,,,,,,,,,,,Listen to the question and speak out your answer!,1536.5822370052338,None,1536.5618473291397,1538.5807659626007,Linda packt immer viel zu viele Kleidung in ihren Koffer.,packt,1537.964126944542,None,1541.7309769392014,None,1553.1649347543716,None,1554.5818338394165,None,./data/Subject_04/Session_00/Exp_data/2020_Jul_04_1519/rec_QA_run_00_block_001_trial_021.wav,04,00,Norwegian,B1,True,False,True,False,False,True,True,True,True,True,True,True,No,No,No,No,No,No,2020_Jul_04_1519,nibs_stage_1,3.2.3,59.956401104124176,
0,0,0,0,1,0,1,0,22,0,22,0,,,,,,,,,,,,,,,,,,,,,,,,,Listen to the question and speak out your answer!,1557.6318759918213,None,1557.5962382555008,1559.6319329738617,"Ich muss meinen Nachnamen oft langsam buchstabieren, weil er zu selten ist.",buchstabieren,1558.9818967580795,1563.4654669761658,1563.8488067388535,None,1574.1826819181442,1575.1994400024414,1575.5994229316711,None,./data/Subject_04/Session_00/Exp_data/2020_Jul_04_1519/rec_QA_run_00_block_001_trial_022.wav,04,00,Norwegian,B1,True,False,True,False,False,True,True,True,True,True,True,True,No,No,No,No,No,No,2020_Jul_04_1519,nibs_stage_1,3.2.3,59.956401104124176,
0,0,0,0,1,0,1,0,23,0,23,0,,,,,,,,,,,,,,,,,,,,,,,,,Listen to the question and speak out your answer!,1578.6836960315704,None,1578.6473041772842,1580.6830458641052,Jetzt will ich eine Vorstellung machen.,machen,1580.0329948663712,None,1582.5664459466934,None,1595.233745932579,None,1596.6505398750305,None,./data/Subject_04/Session_00/Exp_data/2020_Jul_04_1519/rec_QA_run_00_block_001_trial_023.wav,04,00,Norwegian,B1,True,False,True,False,False,True,True,True,True,True,True,True,No,No,No,No,No,No,2020_Jul_04_1519,nibs_stage_1,3.2.3,59.956401104124176,
0,0,0,0,1,0,1,0,24,0,24,0,,,,,,,,,,,,,,,,,,,,,,,,,Listen to the question and speak out your answer!,1599.7190420627594,None,1599.698410153389,1601.7174830436707,Linda trinkt lieber eine heiße Schokolade.,trinkt,1601.1007508039474,1603.8842499256134,1604.2675567865372,None,1616.3015488386154,None,1617.718276977539,None,./data/Subject_04/Session_00/Exp_data/2020_Jul_04_1519/rec_QA_run_00_block_001_trial_024.wav,04,00,Norwegian,B1,True,False,True,False,False,True,True,True,True,True,True,True,No,No,No,No,No,No,2020_Jul_04_1519,nibs_stage_1,3.2.3,59.956401104124176,
