run.thisRepN,run.thisTrialN,run.thisN,run.thisIndex,artifact_trial.thisRepN,artifact_trial.thisTrialN,artifact_trial.thisN,artifact_trial.thisIndex,QA_block.thisRepN,QA_block.thisTrialN,QA_block.thisN,QA_block.thisIndex,QA_trial.thisRepN,QA_trial.thisTrialN,QA_trial.thisN,QA_trial.thisIndex,fade_in_text.text,fade_in_text.started,fade_in_text.stopped,Artifact_intro_title.started,Artifact_intro_title.stopped,Artifact_intro_text.text,Artifact_intro_text.started,Artifact_intro_text.stopped,Artifact_intro_audio.started,Artifact_intro_audio.stopped,Artifact_intro_cont.started,Artifact_intro_cont.stopped,Artifact_rec_text.text,Artifact_rec_text.started,Artifact_rec_text.stopped,Artifact_rec_beep_hint.started,Artifact_rec_beep_hint.stopped,Artifact_rec_action.started,Artifact_rec_action.stopped,Artifact_rec_beep_start.started,Artifact_rec_beep_start.stopped,Artifact_rec_recording.started,Artifact_rec_recording.stopped,Artifact_rec_beep_end.started,Artifact_rec_beep_end.stopped,Artifact_rec_break.started,Artifact_rec_break.stopped,RS_intro_title.started,RS_intro_title.stopped,RS_intro_text.text,RS_intro_text.started,RS_intro_text.stopped,RS_intro_audio.started,RS_intro_audio.stopped,RS_rec_text.text,RS_rec_text.started,RS_rec_text.stopped,Pause_cont.started,Pause_cont.stopped,QA_intro_title.started,QA_intro_title.stopped,QA_intro_text.text,QA_intro_text.started,QA_intro_text.stopped,QA_intro_audio.started,QA_intro_audio.stopped,QA_intro_cont.started,QA_intro_cont.stopped,QA_rec_text.text,QA_rec_text.started,QA_rec_text.stopped,QA_rec_beep_hint.started,QA_rec_beep_hint.stopped,QA_rec_question.sen_text,QA_rec_question.cen_text,QA_rec_question.started,QA_rec_question.stopped,QA_rec_beep_start.started,QA_rec_beep_start.stopped,QA_rec_beep_end.started,QA_rec_beep_end.stopped,QA_rec_break.started,QA_rec_break.stopped,filename,fade_out_text.text,fade_out_text.started,fade_out_text.stopped,participant,session,First language,German level,Full_screen,Instruction,Intro,Artifact,Cali_pre,Fade_in_out,Artifact_within,Resting_State,QA,Pause,Cali_post,End,Breakpoint_Cali_pre_trial,Breakpoint_Run,Breakpoint_RS_block,Breakpoint_QA_block,Breakpoint_QA_trial,Breakpoint_Cali_post_trial,date,expName,psychopyVersion,frameRate,
2,0,2,0,0,0,0,0,,,,,,,,,Please remain seated until further instruction via the earphone.,136.84585285186768,None,138.88012099266052,None,"  - Task: Artifacts collection   
  - Please follow audio instruction              
",138.88012099266052,None,138.8630686044693,None,165.26418590545654,None,,167.29805898666382,None,167.29807286262513,169.2976357936859,168.68097999095917,None,172.08115413188935,173.0813488960266,173.48125507831574,183.4817328453064,183.88173201084138,None,185.2817850112915,186.28189301490784,,,,,,,,,,,,,,,,,,,,,,,,,,,,,,,,,,,,,,,,,04,00,Norwegian,B1,True,False,True,False,False,True,True,True,True,True,True,True,No,2,No,No,No,No,2020_Jul_04_1622,nibs_stage_1,3.2.3,59.97860717860718,
2,0,2,0,1,0,1,0,,,,,,,,,,,,,,,,,,,,,,189.31513786315918,189.31513786315918,189.2991185426712,191.2986238002777,190.69853808879853,None,194.09871819019318,195.09878301620483,195.49898507595063,205.49939393997192,205.8994660615921,None,207.2994089126587,208.29952383041382,,,,,,,,,,,,,,,,,,,,,,,,,,,,,,,,,,,,,,,,,04,00,Norwegian,B1,True,False,True,False,False,True,True,True,True,True,True,True,No,2,No,No,No,No,2020_Jul_04_1622,nibs_stage_1,3.2.3,59.97860717860718,
2,0,2,0,2,0,2,0,,,,,,,,,,,,,,,,,,,,,,211.3331549167633,None,211.3169145822525,213.31660795211792,212.69990112781525,None,216.10009815692902,217.10031700134277,217.5001831293106,227.50071501731873,227.90073611736298,None,229.30072498321533,230.3008189201355,,,,,,,,,,,,,,,,,,,,,,,,,,,,,,,,,,,,,,,,,04,00,Norwegian,B1,True,False,True,False,False,True,True,True,True,True,True,True,No,2,No,No,No,No,2020_Jul_04_1622,nibs_stage_1,3.2.3,59.97860717860718,
2,0,2,0,3,0,3,0,,,,,,,,,,,,,,,,,,,,,,233.35113096237183,None,233.33495857715607,235.33458399772644,234.71774318218232,None,238.11791112422944,None,239.51798202991486,249.51848196983337,249.91857912540436,None,251.3187758922577,252.3186318874359,,,,,,,,,,,,,,,,,,,,,,,,,,,,,,,,,,,,,,,,,04,00,Norwegian,B1,True,False,True,False,False,True,True,True,True,True,True,True,No,2,No,No,No,No,2020_Jul_04_1622,nibs_stage_1,3.2.3,59.97860717860718,
2,0,2,0,4,0,4,0,,,,,,,,,,,,,,,,,,,,,,255.3688099384308,None,255.35258271694184,257.35222601890564,256.73544814586637,None,260.1357300519943,261.135773897171,261.5358171701431,271.5363528728485,271.9363410711288,272.9363079071045,273.33638191223145,274.33646178245544,,,,,,,,,,,,,,,,,,,,,,,,,,,,,,,,,,,,,,,,,04,00,Norwegian,B1,True,False,True,False,False,True,True,True,True,True,True,True,No,2,No,No,No,No,2020_Jul_04_1622,nibs_stage_1,3.2.3,59.97860717860718,
2,0,2,0,5,0,5,0,,,,,,,,,,,,,,,,,,,,,,277.3866608142853,None,277.3705935716629,279.37084698677063,278.75341107845304,None,282.15358712673185,283.1535840034485,283.55361821651456,293.554123878479,293.9541621446609,None,295.3541579246521,296.354327917099,,,,,,,,,,,,,,,,,,,,,,,,,,,,,,,,,,,,,,,,,04,00,Norwegian,B1,True,False,True,False,False,True,True,True,True,True,True,True,No,2,No,No,No,No,2020_Jul_04_1622,nibs_stage_1,3.2.3,59.97860717860718,
2,0,2,0,6,0,6,0,,,,,,,,,,,,,,,,,,,,,,299.40464901924133,None,299.3882365465164,301.38787293434143,300.77118303775785,None,304.17171504497526,305.1714630126953,305.57142903804777,315.5719459056854,315.9720130205154,None,317.3721640110016,318.37203788757324,,,,,,,,,,,,,,,,,,,,,,,,,,,,,,,,,,,,,,,,,04,00,Norwegian,B1,True,False,True,False,False,True,True,True,True,True,True,True,No,2,No,No,No,No,2020_Jul_04_1622,nibs_stage_1,3.2.3,59.97860717860718,
2,0,2,0,7,0,7,0,,,,,,,,,,,,,,,,,,,,,,321.42204999923706,None,321.40605356693266,323.40548396110535,322.78869607448576,325.78885293006897,326.1888799905777,None,327.5891402006149,337.5900559425354,337.9895961523056,None,339.3896789550781,340.38970398902893,,,,,,,,,,,,,,,,,,,,,,,,,,,,,,,,,,,,,,,,,04,00,Norwegian,B1,True,False,True,False,False,True,True,True,True,True,True,True,No,2,No,No,No,No,2020_Jul_04_1622,nibs_stage_1,3.2.3,59.97860717860718,
2,0,2,0,8,0,8,0,,,,,,,,,,,,,,,,,,,,,,343.43992495536804,None,343.4236667394638,345.4233088493347,344.8066179990768,347.8067719936371,348.20678117275236,349.2068338394165,349.6068790197372,359.6073999404907,360.0074270009994,None,361.40750789642334,362.4075679779053,,,,,,,,,,,,,,,,,,,,,,,,,,,,,,,,,,,,,,,,,04,00,Norwegian,B1,True,False,True,False,False,True,True,True,True,True,True,True,No,2,No,No,No,No,2020_Jul_04_1622,nibs_stage_1,3.2.3,59.97860717860718,
2,0,2,0,9,0,9,0,,,,,,,,,,,,,,,,,,,,,,365.4578700065613,None,365.441477560997,367.44120383262634,366.8244350194931,369.82460498809814,370.22513606548307,371.2246718406677,371.6247132062912,381.6252238750458,382.02524306774137,None,383.4258999824524,384.42527985572815,,,,,,,,,,,,,,,,,,,,,,,,,,,,,,,,,,,,,,,,,04,00,Norwegian,B1,True,False,True,False,False,True,True,True,True,True,True,True,No,2,No,No,No,No,2020_Jul_04_1622,nibs_stage_1,3.2.3,59.97860717860718,
2,0,2,0,10,0,10,0,,,,,,,,,,,,,,,,,,,,,,387.4755349159241,None,387.45933463573454,389.45898699760437,388.8422410726547,None,392.2426030874252,None,393.64253118038175,403.64304280281067,404.0430901288986,None,405.4430968761444,406.44320583343506,,,,,,,,,,,,,,,,,,,,,,,,,,,,,,,,,,,,,,,,,04,00,Norwegian,B1,True,False,True,False,False,True,True,True,True,True,True,True,No,2,No,No,No,No,2020_Jul_04_1622,nibs_stage_1,3.2.3,59.97860717860718,
2,0,2,0,11,0,11,0,,,,,,,,,,,,,,,,,,,,,,409.49374890327454,None,409.4771456956863,411.47679901123047,410.860174202919,None,414.26021506786344,None,415.6603679895401,425.66091895103455,426.06090714931486,None,427.4609680175781,428.46094393730164,,,,,,,,,,,,,,,,,,,,,,,,,,,,,,,,,,,,,,,,,04,00,Norwegian,B1,True,False,True,False,False,True,True,True,True,True,True,True,No,2,No,No,No,No,2020_Jul_04_1622,nibs_stage_1,3.2.3,59.97860717860718,
2,0,2,0,12,0,12,0,,,,,,,,,,,,,,,,,,,,,,431.51135778427124,None,431.49526073932645,433.49484395980835,432.8781671762466,435.87829089164734,436.27827217578886,437.27849102020264,437.67840721607206,447.67891788482666,448.0789990663528,None,449.479199886322,450.4791009426117,,,,,,,,,,,,,,,,,,,,,,,,,,,,,,,,,,,,,,,,,04,00,Norwegian,B1,True,False,True,False,False,True,True,True,True,True,True,True,No,2,No,No,No,No,2020_Jul_04_1622,nibs_stage_1,3.2.3,59.97860717860718,
2,0,2,0,13,0,13,0,,,,,,,,,,,,,,,,,,,,,,453.5292339324951,None,453.51307156085966,455.51268196105957,454.89589908123014,None,458.29637720584867,None,459.6963260412216,469.6967628002167,470.0968010663986,None,471.49706196784973,472.4969120025635,,,,,,,,,,,,,,,,,,,,,,,,,,,,,,,,,,,,,,,,,04,00,Norwegian,B1,True,False,True,False,False,True,True,True,True,True,True,True,No,2,No,No,No,No,2020_Jul_04_1622,nibs_stage_1,3.2.3,59.97860717860718,
2,0,2,0,14,0,14,0,,,,,,,,,,,,,,,,,,,,,,475.54780101776123,None,475.53085377216337,477.5304539203644,476.91381814479826,None,480.31403210163114,None,481.7140732049942,491.71460485458374,492.11461713314054,None,493.51467394828796,494.5147318840027,,,,,,,,,,,,,,,,,,,,,,,,,,,,,,,,,,,,,,,,,04,00,Norwegian,B1,True,False,True,False,False,True,True,True,True,True,True,True,No,2,No,No,No,No,2020_Jul_04_1622,nibs_stage_1,3.2.3,59.97860717860718,
2,0,2,0,,,,,0,0,0,0,0,0,0,0,,,,,,,,,,,,,,,,,,,,,,,,,,,,705.0089499950409,None," - Task: Keep seated and relaxed with either      
             opening or closing eyes                  
 - Beep sound with decreasing pitch: Block finish 
",705.0089499950409,None,704.992899942398,None,"Please keep relaxed and open your eyes.
Note: Blinking is allowed.",728.0435588359833,908.0532817840576,911.4367218017578,None,926.2875928878784,None," - Task: Listen to the question& Speak out answer 
 - Melodious beep sound: Trial start              
 - Silent sound (blank): censored word            
 - Beep sound with increasing pitch: Rec. start   
 - Beep sound with decreasing pitch: Rec. finish  
",926.2875928878784,None,926.2712669610977,None,965.6725878715515,None,Listen to the question and speak out your answer!,968.7561309337616,None,968.7400895118714,970.7396428585052,Mein Vater arbeitet in einer Papierfabrik.,arbeitet,970.1228881120682,972.9563729763031,973.3564841985702,None,985.3236739873886,None,986.7238719463348,987.7237758636475,./data/Subject_04/Session_00/Exp_data/2020_Jul_04_1622/rec_QA_run_02_block_000_trial_000.wav,,,,04,00,Norwegian,B1,True,False,True,False,False,True,True,True,True,True,True,True,No,2,No,No,No,No,2020_Jul_04_1622,nibs_stage_1,3.2.3,59.97860717860718,
2,0,2,0,,,,,0,0,0,0,1,0,1,0,,,,,,,,,,,,,,,,,,,,,,,,,,,,,,,,,,,,,,,,,,,,,,,,,Listen to the question and speak out your answer!,989.8244128227234,None,989.8080800294875,991.8074128627777,Wir haben auf der Konferenz einige grundlegende Fragen zum Klimaschutz diskutiert.,diskutiert,991.2073002099991,None,996.6743011713028,None,1006.4082641839981,None,1007.8081889152527,1008.8082327842712,./data/Subject_04/Session_00/Exp_data/2020_Jul_04_1622/rec_QA_run_02_block_000_trial_001.wav,,,,04,00,Norwegian,B1,True,False,True,False,False,True,True,True,True,True,True,True,No,2,No,No,No,No,2020_Jul_04_1622,nibs_stage_1,3.2.3,59.97860717860718,
2,0,2,0,,,,,0,0,0,0,2,0,2,0,,,,,,,,,,,,,,,,,,,,,,,,,,,,,,,,,,,,,,,,,,,,,,,,,Listen to the question and speak out your answer!,1010.8427138328552,None,1010.8254485368728,1012.8417630195618,"Bitten aufpassen, zu viel Zucker schadet der Gesundheit.",aufpassen,1012.2250809907913,1015.6085729598999,1015.9918411016464,1017.0086469650269,1027.4092080831529,1028.42591381073,1028.825954914093,None,./data/Subject_04/Session_00/Exp_data/2020_Jul_04_1622/rec_QA_run_02_block_000_trial_002.wav,,,,04,00,Norwegian,B1,True,False,True,False,False,True,True,True,True,True,True,True,No,2,No,No,No,No,2020_Jul_04_1622,nibs_stage_1,3.2.3,59.97860717860718,
2,0,2,0,,,,,0,0,0,0,3,0,3,0,,,,,,,,,,,,,,,,,,,,,,,,,,,,,,,,,,,,,,,,,,,,,,,,,Listen to the question and speak out your answer!,1031.8946759700775,None,1031.87668902874,1033.89284491539,"Wir sind stolz auf das, was wir bis jetzt geschafft haben.",geschafft,1033.276272082329,1036.6263408660889,1037.0096910238267,None,1048.4769342184068,None,1049.8936879634857,None,./data/Subject_04/Session_00/Exp_data/2020_Jul_04_1622/rec_QA_run_02_block_000_trial_003.wav,,,,04,00,Norwegian,B1,True,False,True,False,False,True,True,True,True,True,True,True,No,2,No,No,No,No,2020_Jul_04_1622,nibs_stage_1,3.2.3,59.97860717860718,
2,0,2,0,,,,,0,0,0,0,4,0,4,0,,,,,,,,,,,,,,,,,,,,,,,,,,,,,,,,,,,,,,,,,,,,,,,,,Listen to the question and speak out your answer!,1052.94473695755,None,1052.9276259422304,1054.9440159797668,"Wenn Sie nicht aufpassen, könnten Sie sich die Finger verletzen.",aufpassen,1054.327281022072,None,1058.0274610757829,None,1069.528063082695,None,1070.9447829723358,None,./data/Subject_04/Session_00/Exp_data/2020_Jul_04_1622/rec_QA_run_02_block_000_trial_004.wav,,,,04,00,Norwegian,B1,True,False,True,False,False,True,True,True,True,True,True,True,No,2,No,No,No,No,2020_Jul_04_1622,nibs_stage_1,3.2.3,59.97860717860718,
2,0,2,0,,,,,0,0,0,0,5,0,5,0,,,,,,,,,,,,,,,,,,,,,,,,,,,,,,,,,,,,,,,,,,,,,,,,,Listen to the question and speak out your answer!,1073.9959099292755,None,1073.9787497997286,1075.99507188797,"Wenn genug Schnee liegt, fahren sie gerne Schi.",fahren,1075.3783810377122,1078.2285268306732,1078.6118672132493,None,1090.5791750192643,None,1091.9959189891815,None,./data/Subject_04/Session_00/Exp_data/2020_Jul_04_1622/rec_QA_run_02_block_000_trial_005.wav,,,,04,00,Norwegian,B1,True,False,True,False,False,True,True,True,True,True,True,True,No,2,No,No,No,No,2020_Jul_04_1622,nibs_stage_1,3.2.3,59.97860717860718,
2,0,2,0,,,,,0,0,0,0,6,0,6,0,,,,,,,,,,,,,,,,,,,,,,,,,,,,,,,,,,,,,,,,,,,,,,,,,Listen to the question and speak out your answer!,1095.0630040168762,None,1095.046528172493,1097.0628550052643,Der Junge hat das Mädchen zum Kaffee eingeladen.,eingeladen,1096.4461450815202,None,1099.7129822015763,None,1111.646929049492,1112.6637198925018,1113.0636768341064,None,./data/Subject_04/Session_00/Exp_data/2020_Jul_04_1622/rec_QA_run_02_block_000_trial_006.wav,,,,04,00,Norwegian,B1,True,False,True,False,False,True,True,True,True,True,True,True,No,2,No,No,No,No,2020_Jul_04_1622,nibs_stage_1,3.2.3,59.97860717860718,
2,0,2,0,,,,,0,0,0,0,7,0,7,0,,,,,,,,,,,,,,,,,,,,,,,,,,,,,,,,,,,,,,,,,,,,,,,,,Listen to the question and speak out your answer!,1116.1140818595886,None,1116.0976558208467,1118.1139378547668,"Ich empfehle dieses Buch, weil es sehr gut ist.",empfehle,1117.4972532033921,1120.4475309848785,1120.8307690858842,None,1132.6980440855027,None,1134.1147627830505,None,./data/Subject_04/Session_00/Exp_data/2020_Jul_04_1622/rec_QA_run_02_block_000_trial_007.wav,,,,04,00,Norwegian,B1,True,False,True,False,False,True,True,True,True,True,True,True,No,2,No,No,No,No,2020_Jul_04_1622,nibs_stage_1,3.2.3,59.97860717860718,
2,0,2,0,,,,,0,0,0,0,8,0,8,0,,,,,,,,,,,,,,,,,,,,,,,,,,,,,,,,,,,,,,,,,,,,,,,,,Listen to the question and speak out your answer!,1137.1816339492798,None,1137.148755836487,1139.1817009449005,Die Anlage arbeitet vollautomatisch.,arbeitet,1138.565003180504,None,1141.4985029935838,None,1153.7658040761949,None,1155.1825559139252,None,./data/Subject_04/Session_00/Exp_data/2020_Jul_04_1622/rec_QA_run_02_block_000_trial_008.wav,,,,04,00,Norwegian,B1,True,False,True,False,False,True,True,True,True,True,True,True,No,2,No,No,No,No,2020_Jul_04_1622,nibs_stage_1,3.2.3,59.97860717860718,
2,0,2,0,,,,,0,0,0,0,9,0,9,0,,,,,,,,,,,,,,,,,,,,,,,,,,,,,,,,,,,,,,,,,,,,,,,,,Listen to the question and speak out your answer!,1158.1996898651123,None,1158.183146762848,1160.1994869709015,Die Ärztin hat Andrea ein Rezept ausgestellt.,ausgestellt,1159.5827841997148,None,1163.016303086281,1164.0330169200897,1174.7836261034013,1175.8003108501434,1176.2003989219666,None,./data/Subject_04/Session_00/Exp_data/2020_Jul_04_1622/rec_QA_run_02_block_000_trial_009.wav,,,,04,00,Norwegian,B1,True,False,True,False,False,True,True,True,True,True,True,True,No,2,No,No,No,No,2020_Jul_04_1622,nibs_stage_1,3.2.3,59.97860717860718,
2,0,2,0,,,,,0,0,0,0,10,0,10,0,,,,,,,,,,,,,,,,,,,,,,,,,,,,,,,,,,,,,,,,,,,,,,,,,Listen to the question and speak out your answer!,1179.2340569496155,None,1179.217609667778,1181.2338919639587,Hans und Tina heirateten am Donnerstag in der Kirche.,heirateten,1180.6172151803971,None,1184.6840710878373,None,1195.818013215065,None,1197.2347519397736,None,./data/Subject_04/Session_00/Exp_data/2020_Jul_04_1622/rec_QA_run_02_block_000_trial_010.wav,,,,04,00,Norwegian,B1,True,False,True,False,False,True,True,True,True,True,True,True,No,2,No,No,No,No,2020_Jul_04_1622,nibs_stage_1,3.2.3,59.97860717860718,
2,0,2,0,,,,,0,0,0,0,11,0,11,0,,,,,,,,,,,,,,,,,,,,,,,,,,,,,,,,,,,,,,,,,,,,,,,,,Listen to the question and speak out your answer!,1200.285542011261,None,1200.2686899185182,1202.2849369049072,Ich legte meine Geldbörse auf den Tisch.,legte,1201.6683252096177,1204.1851139068604,1204.5684831380845,1205.585216999054,1216.852450156212,1217.8692059516907,1218.2692058086395,None,./data/Subject_04/Session_00/Exp_data/2020_Jul_04_1622/rec_QA_run_02_block_000_trial_011.wav,,,,04,00,Norwegian,B1,True,False,True,False,False,True,True,True,True,True,True,True,No,2,No,No,No,No,2020_Jul_04_1622,nibs_stage_1,3.2.3,59.97860717860718,
2,0,2,0,,,,,0,0,0,0,12,0,12,0,,,,,,,,,,,,,,,,,,,,,,,,,,,,,,,,,,,,,,,,,,,,,,,,,Listen to the question and speak out your answer!,1221.3363678455353,None,1221.3198481321335,1223.3363049030304,Muss ich mit dem Bus fahren oder kann ich zu Fuß gehen?,gehen,1222.7195041418076,1225.803190946579,1226.1862700223924,None,1237.9202242136002,None,1239.3369569778442,None,./data/Subject_04/Session_00/Exp_data/2020_Jul_04_1622/rec_QA_run_02_block_000_trial_012.wav,,,,04,00,Norwegian,B1,True,False,True,False,False,True,True,True,True,True,True,True,No,2,No,No,No,No,2020_Jul_04_1622,nibs_stage_1,3.2.3,59.97860717860718,
2,0,2,0,,,,,0,0,0,0,13,0,13,0,,,,,,,,,,,,,,,,,,,,,,,,,,,,,,,,,,,,,,,,,,,,,,,,,Listen to the question and speak out your answer!,1242.3705677986145,None,1242.3375587940218,1244.3705508708954,Unser Biolehrer unterrichtet uns auch machmal im Grünen.,unterrichtet,1243.753879094124,1247.204046010971,1247.5873990297318,None,1258.954593205452,None,1260.371397972107,None,./data/Subject_04/Session_00/Exp_data/2020_Jul_04_1622/rec_QA_run_02_block_000_trial_013.wav,,,,04,00,Norwegian,B1,True,False,True,False,False,True,True,True,True,True,True,True,No,2,No,No,No,No,2020_Jul_04_1622,nibs_stage_1,3.2.3,59.97860717860718,
2,0,2,0,,,,,0,0,0,0,14,0,14,0,,,,,,,,,,,,,,,,,,,,,,,,,,,,,,,,,,,,,,,,,,,,,,,,,Listen to the question and speak out your answer!,1263.404965877533,None,1263.37199382782,1265.4049139022827,"Leichte Sprache ist eine Hilfe für Menschen , die keine schwierige Sprache verstehen.",verstehen,1264.7883100748063,None,1270.1884961366654,1271.2053170204163,1279.9890852212907,None,1281.4058508872986,None,./data/Subject_04/Session_00/Exp_data/2020_Jul_04_1622/rec_QA_run_02_block_000_trial_014.wav,,,,04,00,Norwegian,B1,True,False,True,False,False,True,True,True,True,True,True,True,No,2,No,No,No,No,2020_Jul_04_1622,nibs_stage_1,3.2.3,59.97860717860718,
2,0,2,0,,,,,0,0,0,0,15,0,15,0,,,,,,,,,,,,,,,,,,,,,,,,,,,,,,,,,,,,,,,,,,,,,,,,,Listen to the question and speak out your answer!,1284.4399638175964,None,1284.4064288616182,1286.4394249916077,"Mutters Einkäufe sind so schwer, deshalb bittet sie Jon, die Tasche zu tragen.",tragen,1285.8227260351182,None,1291.0563271284104,None,1301.023668074608,None,1302.4402649402618,None,./data/Subject_04/Session_00/Exp_data/2020_Jul_04_1622/rec_QA_run_02_block_000_trial_015.wav,,,,04,00,Norwegian,B1,True,False,True,False,False,True,True,True,True,True,True,True,No,2,No,No,No,No,2020_Jul_04_1622,nibs_stage_1,3.2.3,59.97860717860718,
2,0,2,0,,,,,0,0,0,0,16,0,16,0,,,,,,,,,,,,,,,,,,,,,,,,,,,,,,,,,,,,,,,,,,,,,,,,,Listen to the question and speak out your answer!,1305.4738869667053,None,1305.4575310468674,1307.4738597869873,Sam hat gerade das Abitur bestanden und wird sich für die Universität Wien bewerben. ,bewerben,1306.8571491479875,None,1312.3575630426408,1313.374135017395,1322.0579810380937,1323.0746459960938,1323.4747908115387,None,./data/Subject_04/Session_00/Exp_data/2020_Jul_04_1622/rec_QA_run_02_block_000_trial_016.wav,,,,04,00,Norwegian,B1,True,False,True,False,False,True,True,True,True,True,True,True,No,2,No,No,No,No,2020_Jul_04_1622,nibs_stage_1,3.2.3,59.97860717860718,
2,0,2,0,,,,,0,0,0,0,17,0,17,0,,,,,,,,,,,,,,,,,,,,,,,,,,,,,,,,,,,,,,,,,,,,,,,,,Listen to the question and speak out your answer!,1326.5424599647522,None,1326.52530605793,1328.5416169166565,Zum Geburtstag hat ihm Oma ein Buch mit vielen Bildern geschenkt.,geschenkt,1327.9249320268632,None,1332.1251530885697,None,1343.125764155388,None,1344.5424828529358,None,./data/Subject_04/Session_00/Exp_data/2020_Jul_04_1622/rec_QA_run_02_block_000_trial_017.wav,,,,04,00,Norwegian,B1,True,False,True,False,False,True,True,True,True,True,True,True,No,2,No,No,No,No,2020_Jul_04_1622,nibs_stage_1,3.2.3,59.97860717860718,
2,0,2,0,,,,,0,0,0,0,18,0,18,0,,,,,,,,,,,,,,,,,,,,,,,,,,,,,,,,,,,,,,,,,,,,,,,,,Listen to the question and speak out your answer!,1347.610830783844,None,1347.5930860757828,1349.6093819141388,"Ich sitze weit entfernt von der Bühne, also muss ich durch ein Fernglas schauen.",schauen,1348.9926960706712,None,1353.7929651975633,None,1364.193506026268,None,1365.6102359294891,None,./data/Subject_04/Session_00/Exp_data/2020_Jul_04_1622/rec_QA_run_02_block_000_trial_018.wav,,,,04,00,Norwegian,B1,True,False,True,False,False,True,True,True,True,True,True,True,No,2,No,No,No,No,2020_Jul_04_1622,nibs_stage_1,3.2.3,59.97860717860718,
2,0,2,0,,,,,0,0,0,0,19,0,19,0,,,,,,,,,,,,,,,,,,,,,,,,,,,,,,,,,,,,,,,,,,,,,,,,,Listen to the question and speak out your answer!,1368.6446778774261,None,1368.6274960756302,1370.6439769268036,In der Bibliothek kann man viele seltsame Bücher lesen.,lesen,1370.027134203911,1373.5108850002289,1373.8609540700913,1374.8774650096893,1385.1945951223374,None,1386.6114208698273,None,./data/Subject_04/Session_00/Exp_data/2020_Jul_04_1622/rec_QA_run_02_block_000_trial_019.wav,,,,04,00,Norwegian,B1,True,False,True,False,False,True,True,True,True,True,True,True,No,2,No,No,No,No,2020_Jul_04_1622,nibs_stage_1,3.2.3,59.97860717860718,
2,0,2,0,,,,,0,0,0,0,20,0,20,0,,,,,,,,,,,,,,,,,,,,,,,,,,,,,,,,,,,,,,,,,,,,,,,,,Listen to the question and speak out your answer!,1389.679631948471,None,1389.6619411230088,1391.6782629489899,Der Hotelier buchte zwei Übernachtungen für uns,buchte,1391.0615821123124,None,1394.7617540597917,1395.778478860855,1406.262374186516,None,1407.67911195755,None,./data/Subject_04/Session_00/Exp_data/2020_Jul_04_1622/rec_QA_run_02_block_000_trial_020.wav,,,,04,00,Norwegian,B1,True,False,True,False,False,True,True,True,True,True,True,True,No,2,No,No,No,No,2020_Jul_04_1622,nibs_stage_1,3.2.3,59.97860717860718,
2,0,2,0,,,,,0,0,0,0,21,0,21,0,,,,,,,,,,,,,,,,,,,,,,,,,,,,,,,,,,,,,,,,,,,,,,,,,Listen to the question and speak out your answer!,1410.7132649421692,None,1410.679737854004,1412.7126939296722,Zu Ostern gibt es für Kinder Ostereier und Süßigkeiten.,gibt,1412.0627081632615,None,1416.2295520544053,None,1427.2634570837022,1428.2805018424988,1428.6802039146423,None,./data/Subject_04/Session_00/Exp_data/2020_Jul_04_1622/rec_QA_run_02_block_000_trial_021.wav,,,,04,00,Norwegian,B1,True,False,True,False,False,True,True,True,True,True,True,True,No,2,No,No,No,No,2020_Jul_04_1622,nibs_stage_1,3.2.3,59.97860717860718,
2,0,2,0,,,,,0,0,0,0,22,0,22,0,,,,,,,,,,,,,,,,,,,,,,,,,,,,,,,,,,,,,,,,,,,,,,,,,Listen to the question and speak out your answer!,1431.7471017837524,None,1431.7308231115342,1433.7471549510956,Er wurde zum Leiter der Abteilung befördert.,befördert,1433.1304440736772,None,1436.1639411687852,None,1448.331237101555,None,1449.7479507923126,None,./data/Subject_04/Session_00/Exp_data/2020_Jul_04_1622/rec_QA_run_02_block_000_trial_022.wav,,,,04,00,Norwegian,B1,True,False,True,False,False,True,True,True,True,True,True,True,No,2,No,No,No,No,2020_Jul_04_1622,nibs_stage_1,3.2.3,59.97860717860718,
2,0,2,0,,,,,0,0,0,0,23,0,23,0,,,,,,,,,,,,,,,,,,,,,,,,,,,,,,,,,,,,,,,,,,,,,,,,,Listen to the question and speak out your answer!,1452.7839608192444,None,1452.7653589963913,1454.7815577983856,Das Friedensabkommen hat den Krieg beendet.,beendet,1454.1649980783463,None,1457.0985009908677,None,1469.365679049492,1470.382411956787,1470.7824218273163,None,./data/Subject_04/Session_00/Exp_data/2020_Jul_04_1622/rec_QA_run_02_block_000_trial_023.wav,,,,04,00,Norwegian,B1,True,False,True,False,False,True,True,True,True,True,True,True,No,2,No,No,No,No,2020_Jul_04_1622,nibs_stage_1,3.2.3,59.97860717860718,
2,0,2,0,,,,,0,0,0,0,24,0,24,0,,,,,,,,,,,,,,,,,,,,,,,,,,,,,,,,,,,,,,,,,,,,,,,,,Listen to the question and speak out your answer!,1473.8492619991302,None,1473.8163698196413,1475.8493518829346,"Wir mussten ein amtliches Formular ausfüllen, als wir geheiratet haben.",ausfüllen,1475.232642197609,None,1479.9328730344773,1480.949623823166,1490.433422112465,None,1491.8501479625702,None,./data/Subject_04/Session_00/Exp_data/2020_Jul_04_1622/rec_QA_run_02_block_000_trial_024.wav,,,,04,00,Norwegian,B1,True,False,True,False,False,True,True,True,True,True,True,True,No,2,No,No,No,No,2020_Jul_04_1622,nibs_stage_1,3.2.3,59.97860717860718,
2,0,2,0,,,,,0,0,0,0,,,,,,,,,,,,,,,,,,,,,,,,,,,,,,,,,,,,,,,,,,1495.8675498962402,None,,,,,,,,,,,,,,,,,,,,,,,,,,,,,04,00,Norwegian,B1,True,False,True,False,False,True,True,True,True,True,True,True,No,2,No,No,No,No,2020_Jul_04_1622,nibs_stage_1,3.2.3,59.97860717860718,
2,0,2,0,,,,,1,0,1,0,0,0,0,0,,,,,,,,,,,,,,,,,,,,,,,,,,,,,,,,,,,,,,,,,,,,,,,,,Listen to the question and speak out your answer!,1510.7516808509827,None,1510.7185152292252,1512.7513599395752,Die Präsentation dauert eine halbe Stunde.,dauert,1512.1012211084367,1514.8847229480743,1515.2680571317674,None,1527.3020282030107,None,1528.7187638282776,None,./data/Subject_04/Session_00/Exp_data/2020_Jul_04_1622/rec_QA_run_02_block_001_trial_000.wav,,,,04,00,Norwegian,B1,True,False,True,False,False,True,True,True,True,True,True,True,No,2,No,No,No,No,2020_Jul_04_1622,nibs_stage_1,3.2.3,59.97860717860718,
2,0,2,0,,,,,1,0,1,0,1,0,1,0,,,,,,,,,,,,,,,,,,,,,,,,,,,,,,,,,,,,,,,,,,,,,,,,,Listen to the question and speak out your answer!,1531.7868869304657,None,1531.7694781541825,1533.785698890686,Sie müssen vorsichtig die Anleitung für Elektrogeräte lesen.,lesen,1533.168998026848,None,1537.4025700330735,None,1548.3698060750962,1549.386507987976,1549.7865278720856,None,./data/Subject_04/Session_00/Exp_data/2020_Jul_04_1622/rec_QA_run_02_block_001_trial_001.wav,,,,04,00,Norwegian,B1,True,False,True,False,False,True,True,True,True,True,True,True,No,2,No,No,No,No,2020_Jul_04_1622,nibs_stage_1,3.2.3,59.97860717860718,
2,0,2,0,,,,,1,0,1,0,2,0,2,0,,,,,,,,,,,,,,,,,,,,,,,,,,,,,,,,,,,,,,,,,,,,,,,,,Listen to the question and speak out your answer!,1552.8540089130402,None,1552.8204839706423,1554.8533627986908,"Nur wenn mein Haar schmutzig ist, werde ich es bürsten.",bürsten,1554.2034201860429,None,1557.6702621221543,None,1569.4041550397874,None,1570.820955991745,None,./data/Subject_04/Session_00/Exp_data/2020_Jul_04_1622/rec_QA_run_02_block_001_trial_002.wav,,,,04,00,Norwegian,B1,True,False,True,False,False,True,True,True,True,True,True,True,No,2,No,No,No,No,2020_Jul_04_1622,nibs_stage_1,3.2.3,59.97860717860718,
2,0,2,0,,,,,1,0,1,0,3,0,3,0,,,,,,,,,,,,,,,,,,,,,,,,,,,,,,,,,,,,,,,,,,,,,,,,,Listen to the question and speak out your answer!,1573.9044950008392,None,1573.8716681718827,1575.9045758247375,Ich musste heute Morgen richtig schnell nach der Busstation laufen.,laufen,1575.2545340299607,1579.105052947998,1579.5214410066606,1580.5380599498749,1590.455316090584,None,1591.8720698356628,None,./data/Subject_04/Session_00/Exp_data/2020_Jul_04_1622/rec_QA_run_02_block_001_trial_003.wav,,,,04,00,Norwegian,B1,True,False,True,False,False,True,True,True,True,True,True,True,No,2,No,No,No,No,2020_Jul_04_1622,nibs_stage_1,3.2.3,59.97860717860718,
2,0,2,0,,,,,1,0,1,0,4,0,4,0,,,,,,,,,,,,,,,,,,,,,,,,,,,,,,,,,,,,,,,,,,,,,,,,,Listen to the question and speak out your answer!,1594.9391629695892,None,1594.9227250337601,1596.9389989376068,"Florian habe so lange Beine, deshalb trage er nur lange Hosen.",trage,1596.3223161935807,None,1600.9560981035233,None,1611.5064552068711,1612.5234389305115,1612.9232687950134,None,./data/Subject_04/Session_00/Exp_data/2020_Jul_04_1622/rec_QA_run_02_block_001_trial_004.wav,,,,04,00,Norwegian,B1,True,False,True,False,False,True,True,True,True,True,True,True,No,2,No,No,No,No,2020_Jul_04_1622,nibs_stage_1,3.2.3,59.97860717860718,
2,0,2,0,,,,,1,0,1,0,5,0,5,0,,,,,,,,,,,,,,,,,,,,,,,,,,,,,,,,,,,,,,,,,,,,,,,,,Listen to the question and speak out your answer!,1615.990800857544,None,1615.9573908329012,1617.990404844284,"Es ist Zeit, diesen Ort zu verlassen.",verlassen,1617.3734112024308,None,1620.1402020692826,1621.156939983368,1632.5742190122605,1633.590914964676,1633.9909389019012,None,./data/Subject_04/Session_00/Exp_data/2020_Jul_04_1622/rec_QA_run_02_block_001_trial_005.wav,,,,04,00,Norwegian,B1,True,False,True,False,False,True,True,True,True,True,True,True,No,2,No,No,No,No,2020_Jul_04_1622,nibs_stage_1,3.2.3,59.97860717860718,
2,0,2,0,,,,,1,0,1,0,6,0,6,0,,,,,,,,,,,,,,,,,,,,,,,,,,,,,,,,,,,,,,,,,,,,,,,,,Listen to the question and speak out your answer!,1637.0251309871674,None,1636.9916339397432,1639.0246319770813,"Sie war zu stolz, um ihn um Hilfe zu bitten.",bitten,1638.4078650712968,None,1641.674651169777,None,1653.6086671590806,None,1655.0255107879639,None,./data/Subject_04/Session_00/Exp_data/2020_Jul_04_1622/rec_QA_run_02_block_001_trial_006.wav,,,,04,00,Norwegian,B1,True,False,True,False,False,True,True,True,True,True,True,True,No,2,No,No,No,No,2020_Jul_04_1622,nibs_stage_1,3.2.3,59.97860717860718,
2,0,2,0,,,,,1,0,1,0,7,0,7,0,,,,,,,,,,,,,,,,,,,,,,,,,,,,,,,,,,,,,,,,,,,,,,,,,Listen to the question and speak out your answer!,1658.0603919029236,None,1658.0426359891892,1660.0589628219604,Er hilft der alten Frau beim Einsteigen ins Auto.,hilft,1659.4422641038896,None,1663.0424649953843,1664.059182882309,1674.6430530786515,1675.6597838401794,1676.0598108768463,None,./data/Subject_04/Session_00/Exp_data/2020_Jul_04_1622/rec_QA_run_02_block_001_trial_007.wav,,,,04,00,Norwegian,B1,True,False,True,False,False,True,True,True,True,True,True,True,No,2,No,No,No,No,2020_Jul_04_1622,nibs_stage_1,3.2.3,59.97860717860718,
2,0,2,0,,,,,1,0,1,0,8,0,8,0,,,,,,,,,,,,,,,,,,,,,,,,,,,,,,,,,,,,,,,,,,,,,,,,,Listen to the question and speak out your answer!,1679.110212802887,None,1679.09376077652,1681.1099908351898,Er legte das Messer und die Gabel neben den Teller.,legte,1680.4933820009232,1683.5768458843231,1683.9602291822434,None,1695.6941900491715,None,1697.1108980178833,None,./data/Subject_04/Session_00/Exp_data/2020_Jul_04_1622/rec_QA_run_02_block_001_trial_008.wav,,,,04,00,Norwegian,B1,True,False,True,False,False,True,True,True,True,True,True,True,No,2,No,No,No,No,2020_Jul_04_1622,nibs_stage_1,3.2.3,59.97860717860718,
2,0,2,0,,,,,1,0,1,0,9,0,9,0,,,,,,,,,,,,,,,,,,,,,,,,,,,,,,,,,,,,,,,,,,,,,,,,,Listen to the question and speak out your answer!,1700.1780939102173,None,1700.1615119695664,1702.1778428554535,Ein Gewitter besteht aus Blitz und Donner.,besteht,1701.5611322164536,None,1704.4282570123673,None,1716.7619700670243,None,1718.1787350177765,None,./data/Subject_04/Session_00/Exp_data/2020_Jul_04_1622/rec_QA_run_02_block_001_trial_009.wav,,,,04,00,Norwegian,B1,True,False,True,False,False,True,True,True,True,True,True,True,No,2,No,No,No,No,2020_Jul_04_1622,nibs_stage_1,3.2.3,59.97860717860718,
2,0,2,0,,,,,1,0,1,0,10,0,10,0,,,,,,,,,,,,,,,,,,,,,,,,,,,,,,,,,,,,,,,,,,,,,,,,,Listen to the question and speak out your answer!,1721.2127900123596,None,1721.1793189525606,1723.2122859954834,"Der Assistent ging zurück ins Büro, um die Dokumente zu holen.",holen,1722.562241101265,None,1726.9292540788651,None,1737.7631631135941,None,1739.1797499656677,None,./data/Subject_04/Session_00/Exp_data/2020_Jul_04_1622/rec_QA_run_02_block_001_trial_010.wav,,,,04,00,Norwegian,B1,True,False,True,False,False,True,True,True,True,True,True,True,No,2,No,No,No,No,2020_Jul_04_1622,nibs_stage_1,3.2.3,59.97860717860718,
2,0,2,0,,,,,1,0,1,0,11,0,11,0,,,,,,,,,,,,,,,,,,,,,,,,,,,,,,,,,,,,,,,,,,,,,,,,,Listen to the question and speak out your answer!,1742.3139100074768,None,1742.2970828294756,1744.3134059906006,"Um den Sachverhalt zu erklären, fehlten ihm die treffenden Vokabeln.",erklären,1743.696592116356,1747.9136278629303,1748.2638612031938,None,1758.8974690675736,None,1760.3142018318176,None,./data/Subject_04/Session_00/Exp_data/2020_Jul_04_1622/rec_QA_run_02_block_001_trial_011.wav,,,,04,00,Norwegian,B1,True,False,True,False,False,True,True,True,True,True,True,True,No,2,No,No,No,No,2020_Jul_04_1622,nibs_stage_1,3.2.3,59.97860717860718,
2,0,2,0,,,,,1,0,1,0,12,0,12,0,,,,,,,,,,,,,,,,,,,,,,,,,,,,,,,,,,,,,,,,,,,,,,,,,Listen to the question and speak out your answer!,1763.3828189373016,None,1763.3647931337357,1765.3811378479004,Auf Lavaerde wachsen sehr gute Weintrauben.,wachsen,1764.7644419908524,1767.9146308898926,1768.2980590105058,None,1779.9652211904527,None,1781.3819630146027,None,./data/Subject_04/Session_00/Exp_data/2020_Jul_04_1622/rec_QA_run_02_block_001_trial_012.wav,,,,04,00,Norwegian,B1,True,False,True,False,False,True,True,True,True,True,True,True,No,2,No,No,No,No,2020_Jul_04_1622,nibs_stage_1,3.2.3,59.97860717860718,
2,0,2,0,,,,,1,0,1,0,13,0,13,0,,,,,,,,,,,,,,,,,,,,,,,,,,,,,,,,,,,,,,,,,,,,,,,,,Listen to the question and speak out your answer!,1784.449453830719,None,1784.4158919334413,1786.4489889144897,Sie hat neue Laufschuhe bekommen.,bekommen,1785.8322081804276,None,1788.2656851053239,None,1801.0330021619798,None,1802.449833869934,None,./data/Subject_04/Session_00/Exp_data/2020_Jul_04_1622/rec_QA_run_02_block_001_trial_013.wav,,,,04,00,Norwegian,B1,True,False,True,False,False,True,True,True,True,True,True,True,No,2,No,No,No,No,2020_Jul_04_1622,nibs_stage_1,3.2.3,59.97860717860718,
2,0,2,0,,,,,1,0,1,0,14,0,14,0,,,,,,,,,,,,,,,,,,,,,,,,,,,,,,,,,,,,,,,,,,,,,,,,,Listen to the question and speak out your answer!,1805.4832298755646,None,1805.4504569053652,1807.4833419322968,Er konnte auf alle Fragen des Quiz antworten.,antworten,1806.8667121171952,1809.6167879104614,1810.0001430749894,1811.0174078941345,1822.067454123497,None,1823.484200000763,None,./data/Subject_04/Session_00/Exp_data/2020_Jul_04_1622/rec_QA_run_02_block_001_trial_014.wav,,,,04,00,Norwegian,B1,True,False,True,False,False,True,True,True,True,True,True,True,No,2,No,No,No,No,2020_Jul_04_1622,nibs_stage_1,3.2.3,59.97860717860718,
2,0,2,0,,,,,1,0,1,0,15,0,15,0,,,,,,,,,,,,,,,,,,,,,,,,,,,,,,,,,,,,,,,,,,,,,,,,,Listen to the question and speak out your answer!,1826.534991979599,None,1826.501472067833,1828.534441947937,Peter interessiert sich sehr für Geschichte.,interessiert,1827.8843851327897,None,1831.0184791326524,None,1843.0852082014085,None,1844.5019619464874,None,./data/Subject_04/Session_00/Exp_data/2020_Jul_04_1622/rec_QA_run_02_block_001_trial_015.wav,,,,04,00,Norwegian,B1,True,False,True,False,False,True,True,True,True,True,True,True,No,2,No,No,No,No,2020_Jul_04_1622,nibs_stage_1,3.2.3,59.97860717860718,
2,0,2,0,,,,,1,0,1,0,16,0,16,0,,,,,,,,,,,,,,,,,,,,,,,,,,,,,,,,,,,,,,,,,,,,,,,,,Listen to the question and speak out your answer!,1847.5692858695984,None,1847.5524860143662,1849.5688738822937,Er hat die Verbindung zwischen zwei Zufälligkeiten hergestellt.,hergestellt,1848.9523091554643,1852.6356899738312,1853.019049191475,None,1864.152978205681,None,1865.569710969925,None,./data/Subject_04/Session_00/Exp_data/2020_Jul_04_1622/rec_QA_run_02_block_001_trial_016.wav,,,,04,00,Norwegian,B1,True,False,True,False,False,True,True,True,True,True,True,True,No,2,No,No,No,No,2020_Jul_04_1622,nibs_stage_1,3.2.3,59.97860717860718,
2,0,2,0,,,,,1,0,1,0,17,0,17,0,,,,,,,,,,,,,,,,,,,,,,,,,,,,,,,,,,,,,,,,,,,,,,,,,Listen to the question and speak out your answer!,1868.6045320034027,None,1868.5870140314103,1870.603376865387,Wir haben im Wald Beeren und Pilze gesammelt.,gesammelt,1869.986610198021,None,1873.1533620595933,None,1885.1874191999436,None,1886.6040480136871,None,./data/Subject_04/Session_00/Exp_data/2020_Jul_04_1622/rec_QA_run_02_block_001_trial_017.wav,,,,04,00,Norwegian,B1,True,False,True,False,False,True,True,True,True,True,True,True,No,2,No,No,No,No,2020_Jul_04_1622,nibs_stage_1,3.2.3,59.97860717860718,
2,0,2,0,,,,,1,0,1,0,18,0,18,0,,,,,,,,,,,,,,,,,,,,,,,,,,,,,,,,,,,,,,,,,,,,,,,,,Listen to the question and speak out your answer!,1889.671597957611,None,1889.6380928039553,1891.6710557937622,Sebastian mag lieber ein schwarzes Brot mit Butter und Marmelade.,mag,1891.0543880701066,1895.2712988853455,1895.6546230554582,None,1906.2552790880204,None,1907.6719319820404,None,./data/Subject_04/Session_00/Exp_data/2020_Jul_04_1622/rec_QA_run_02_block_001_trial_018.wav,,,,04,00,Norwegian,B1,True,False,True,False,False,True,True,True,True,True,True,True,No,2,No,No,No,No,2020_Jul_04_1622,nibs_stage_1,3.2.3,59.97860717860718,
2,0,2,0,,,,,1,0,1,0,19,0,19,0,,,,,,,,,,,,,,,,,,,,,,,,,,,,,,,,,,,,,,,,,,,,,,,,,Listen to the question and speak out your answer!,1910.722711801529,None,1910.6896260499955,1912.7221438884735,Herr Müller hat einen Flug auf die Mittelmeerinsel Mallorca gebucht.,gebucht,1912.1055100202561,1916.0892989635468,1916.4723670721055,1917.4889919757843,1927.3062651395799,1928.3231329917908,1928.7230179309845,None,./data/Subject_04/Session_00/Exp_data/2020_Jul_04_1622/rec_QA_run_02_block_001_trial_019.wav,,,,04,00,Norwegian,B1,True,False,True,False,False,True,True,True,True,True,True,True,No,2,No,No,No,No,2020_Jul_04_1622,nibs_stage_1,3.2.3,59.97860717860718,
2,0,2,0,,,,,1,0,1,0,20,0,20,0,,,,,,,,,,,,,,,,,,,,,,,,,,,,,,,,,,,,,,,,,,,,,,,,,Listen to the question and speak out your answer!,1931.757241010666,None,1931.7237627983095,1933.756609916687,"Hans arbeitet in einer Schule, er ist der Direktor.",arbeitet,1933.1399841547013,1936.3234119415283,1936.706962132454,None,1948.340894007683,None,1949.7574579715729,None,./data/Subject_04/Session_00/Exp_data/2020_Jul_04_1622/rec_QA_run_02_block_001_trial_020.wav,,,,04,00,Norwegian,B1,True,False,True,False,False,True,True,True,True,True,True,True,No,2,No,No,No,No,2020_Jul_04_1622,nibs_stage_1,3.2.3,59.97860717860718,
2,0,2,0,,,,,1,0,1,0,21,0,21,0,,,,,,,,,,,,,,,,,,,,,,,,,,,,,,,,,,,,,,,,,,,,,,,,,Listen to the question and speak out your answer!,1952.79119181633,None,1952.7581089019777,1954.7910277843475,Ich habe mich dieses Semester für einen sehr einfachen Kurs angemeldet.,angemeldet,1954.1743459939958,1958.291682958603,1958.6412530183793,1959.6581408977509,1969.375176215172,None,1970.7918388843536,None,./data/Subject_04/Session_00/Exp_data/2020_Jul_04_1622/rec_QA_run_02_block_001_trial_021.wav,,,,04,00,Norwegian,B1,True,False,True,False,False,True,True,True,True,True,True,True,No,2,No,No,No,No,2020_Jul_04_1622,nibs_stage_1,3.2.3,59.97860717860718,
2,0,2,0,,,,,1,0,1,0,22,0,22,0,,,,,,,,,,,,,,,,,,,,,,,,,,,,,,,,,,,,,,,,,,,,,,,,,Listen to the question and speak out your answer!,1973.826112985611,None,1973.7926228523256,1975.825604915619,Bitte schließ die Tür!,schließ,1975.1754830121995,1976.59246301651,1977.0088670492173,None,1990.376224064827,None,1991.7929627895355,None,./data/Subject_04/Session_00/Exp_data/2020_Jul_04_1622/rec_QA_run_02_block_001_trial_022.wav,,,,04,00,Norwegian,B1,True,False,True,False,False,True,True,True,True,True,True,True,No,2,No,No,No,No,2020_Jul_04_1622,nibs_stage_1,3.2.3,59.97860717860718,
2,0,2,0,,,,,1,0,1,0,23,0,23,0,,,,,,,,,,,,,,,,,,,,,,,,,,,,,,,,,,,,,,,,,,,,,,,,,Listen to the question and speak out your answer!,1994.8600499629974,None,1994.8269448757173,1996.8599028587341,"Meine Eltern schauten vorbei, um sich meinen neuen Garten anzusehen.",anzusehen,1996.2432060480119,2000.3270199298859,2000.710103058815,None,2011.4440350770951,None,2012.8607499599457,None,./data/Subject_04/Session_00/Exp_data/2020_Jul_04_1622/rec_QA_run_02_block_001_trial_023.wav,,,,04,00,Norwegian,B1,True,False,True,False,False,True,True,True,True,True,True,True,No,2,No,No,No,No,2020_Jul_04_1622,nibs_stage_1,3.2.3,59.97860717860718,
2,0,2,0,,,,,1,0,1,0,24,0,24,0,,,,,,,,,,,,,,,,,,,,,,,,,,,,,,,,,,,,,,,,,,,,,,,,,Listen to the question and speak out your answer!,2015.8960478305817,None,2015.8615417957308,2017.8943359851837,Ein Arzt behandelt kranke Leute in einer Praxis oder im Krankenhaus.,behandelt,2017.2777891397477,None,2022.077878022194,None,2032.4784610509873,None,2033.8951768875122,None,./data/Subject_04/Session_00/Exp_data/2020_Jul_04_1622/rec_QA_run_02_block_001_trial_024.wav,,,,04,00,Norwegian,B1,True,False,True,False,False,True,True,True,True,True,True,True,No,2,No,No,No,No,2020_Jul_04_1622,nibs_stage_1,3.2.3,59.97860717860718,
2,0,2,0,,,,,1,0,1,0,,,,,,,,,,,,,,,,,,,,,,,,,,,,,,,,,,,,,,,,,,2037.9120879173279,None,,,,,,,,,,,,,,,,,,,,,,,,,,,,,04,00,Norwegian,B1,True,False,True,False,False,True,True,True,True,True,True,True,No,2,No,No,No,No,2020_Jul_04_1622,nibs_stage_1,3.2.3,59.97860717860718,
2,0,2,0,,,,,,,,,,,,,,,,,,,,,,,,,,,,,,,,,,,,,,,,,,,,,,,,,,,,,,,,,,,,,,,,,,,,,,,,,,,,,Please remain seated until further instruction via the earphone.,136.84585285186768,None,04,00,Norwegian,B1,True,False,True,False,False,True,True,True,True,True,True,True,No,2,No,No,No,No,2020_Jul_04_1622,nibs_stage_1,3.2.3,59.97860717860718,
