run.thisRepN,run.thisTrialN,run.thisN,run.thisIndex,QA_block.thisRepN,QA_block.thisTrialN,QA_block.thisN,QA_block.thisIndex,QA_trial.thisRepN,QA_trial.thisTrialN,QA_trial.thisN,QA_trial.thisIndex,fade_in_text.text,fade_in_text.started,fade_in_text.stopped,RS_intro_title.started,RS_intro_title.stopped,RS_intro_text.text,RS_intro_text.started,RS_intro_text.stopped,RS_intro_audio.started,RS_intro_audio.stopped,RS_rec_text.text,RS_rec_text.started,RS_rec_text.stopped,Pause_cont.started,Pause_cont.stopped,QA_intro_title.started,QA_intro_title.stopped,QA_intro_text.text,QA_intro_text.started,QA_intro_text.stopped,QA_intro_audio.started,QA_intro_audio.stopped,QA_intro_cont.started,QA_intro_cont.stopped,QA_rec_text.text,QA_rec_text.started,QA_rec_text.stopped,QA_rec_beep_hint.started,QA_rec_beep_hint.stopped,QA_rec_question.sen_text,QA_rec_question.cen_text,QA_rec_question.started,QA_rec_question.stopped,QA_rec_beep_start.started,QA_rec_beep_start.stopped,QA_rec_beep_end.started,QA_rec_beep_end.stopped,QA_rec_break.started,QA_rec_break.stopped,filename,participant,session,First language,German level,Full_screen,Instruction,Intro,Artifact,Cali_pre,Fade_in_out,Artifact_within,Resting_State,QA,Pause,Cali_post,End,Breakpoint_Cali_pre_trial,Breakpoint_Run,Breakpoint_RS_block,Breakpoint_QA_block,Breakpoint_QA_trial,Breakpoint_Cali_post_trial,date,expName,psychopyVersion,frameRate,
0,0,0,0,0,0,0,0,0,0,0,0,Please remain seated until further instruction via the earphone.,52.13507294654846,None,261.64504194259644,None," - Task: Keep seated and relaxed with either      
             opening or closing eyes                  
 - Beep sound with decreasing pitch: Block finish 
",261.64504194259644,None,261.6105253219605,None,"Please keep relaxed and open your eyes.
Note: Blinking is allowed.",284.69713592529297,464.73866987228394,468.13876390457153,None,557.1769089698792,597.2120790481567," - Task: Listen to the question& Speak out answer 
 - Melodious beep sound: Trial start              
 - Silent sound (blank): censored word            
 - Beep sound with increasing pitch: Rec. start   
 - Beep sound with decreasing pitch: Rec. finish  
",557.1769089698792,597.2120790481567,557.1582176446915,None,596.5953249931335,None,Listen to the question and speak out your answer!,602.1308560371399,None,602.1105133771897,604.129047870636,"Das Thema interessierte sie, daher hörte sie genau zu.",interessierte,603.5125047922135,None,607.5792007207871,None,618.7130968332291,None,620.1298549175262,None,./data/Subject_08/Session_01/Exp_data/2020_Jul_28_1033/rec_QA_run_00_block_000_trial_000.wav,08,01,English,A2,True,False,True,False,False,True,True,True,True,True,True,True,No,No,No,No,No,No,2020_Jul_28_1033,nibs_stage_1,3.2.3,60.07413476026514,
0,0,0,0,0,0,0,0,1,0,1,0,,,,,,,,,,,,,,,,,,,,,,,,,Listen to the question and speak out your answer!,623.1969540119171,None,623.1788169622422,625.19677901268,Der Mitarbeiter wurde für seinen Fleiß und seine harte Arbeit belohnt.,belohnt,624.580095744133,628.630558013916,629.0135628938675,None,639.7808878183365,640.7976150512695,641.1977438926697,None,./data/Subject_08/Session_01/Exp_data/2020_Jul_28_1033/rec_QA_run_00_block_000_trial_001.wav,08,01,English,A2,True,False,True,False,False,True,True,True,True,True,True,True,No,No,No,No,No,No,2020_Jul_28_1033,nibs_stage_1,3.2.3,60.07413476026514,
0,0,0,0,0,0,0,0,2,0,2,0,,,,,,,,,,,,,,,,,,,,,,,,,Listen to the question and speak out your answer!,644.2811989784241,None,644.2465860128403,646.2812089920044,Darf ich mit einem Scheck bezahlen?,bezahlen,645.6311137437821,None,647.8979587316513,648.9146819114685,660.848627781868,None,662.2653670310974,None,./data/Subject_08/Session_01/Exp_data/2020_Jul_28_1033/rec_QA_run_00_block_000_trial_002.wav,08,01,English,A2,True,False,True,False,False,True,True,True,True,True,True,True,No,No,No,No,No,No,2020_Jul_28_1033,nibs_stage_1,3.2.3,60.07413476026514,
0,0,0,0,0,0,0,0,3,0,3,0,,,,,,,,,,,,,,,,,,,,,,,,,Listen to the question and speak out your answer!,665.3328399658203,None,665.2976781845093,667.3324868679047,Wollen wir morgen zu Hause bleiben oder uns einen Film im Kino ansehen?,ansehen,666.7155906915665,None,671.4158696889878,None,681.9163548707962,None,683.3331139087677,None,./data/Subject_08/Session_01/Exp_data/2020_Jul_28_1033/rec_QA_run_00_block_000_trial_003.wav,08,01,English,A2,True,False,True,False,False,True,True,True,True,True,True,True,No,No,No,No,No,No,2020_Jul_28_1033,nibs_stage_1,3.2.3,60.07413476026514,
0,0,0,0,0,0,0,0,4,0,4,0,,,,,,,,,,,,,,,,,,,,,,,,,Listen to the question and speak out your answer!,686.367024898529,None,686.3489259958268,688.3667209148407,"Wir schafften es, das Projekt nach Plan abzuschließen.",schafften,687.7500078439713,691.2002198696136,691.5835556745529,None,702.9507977724076,None,704.3675799369812,None,./data/Subject_08/Session_01/Exp_data/2020_Jul_28_1033/rec_QA_run_00_block_000_trial_004.wav,08,01,English,A2,True,False,True,False,False,True,True,True,True,True,True,True,No,No,No,No,No,No,2020_Jul_28_1033,nibs_stage_1,3.2.3,60.07413476026514,
0,0,0,0,0,0,0,0,5,0,5,0,,,,,,,,,,,,,,,,,,,,,,,,,Listen to the question and speak out your answer!,707.4017109870911,None,707.36650223732,709.4010610580444,Das Mädchen kümmert sich um seine erkältete Mutter.,kümmert,708.7510928869248,711.8679440021515,712.2846207380295,None,723.951882815361,None,725.3686349391937,None,./data/Subject_08/Session_01/Exp_data/2020_Jul_28_1033/rec_QA_run_00_block_000_trial_005.wav,08,01,English,A2,True,False,True,False,False,True,True,True,True,True,True,True,No,No,No,No,No,No,2020_Jul_28_1033,nibs_stage_1,3.2.3,60.07413476026514,
0,0,0,0,0,0,0,0,6,0,6,0,,,,,,,,,,,,,,,,,,,,,,,,,Listen to the question and speak out your answer!,728.4360749721527,None,728.417595076561,730.4355480670929,Du kannst alle Lehrmaterialien von moodle herunterladen.,herunterladen,729.8188528776169,733.4357290267944,733.8190717458725,None,745.0196418523789,None,746.4364030361176,None,./data/Subject_08/Session_01/Exp_data/2020_Jul_28_1033/rec_QA_run_00_block_000_trial_006.wav,08,01,English,A2,True,False,True,False,False,True,True,True,True,True,True,True,No,No,No,No,No,No,2020_Jul_28_1033,nibs_stage_1,3.2.3,60.07413476026514,
0,0,0,0,0,0,0,0,7,0,7,0,,,,,,,,,,,,,,,,,,,,,,,,,Listen to the question and speak out your answer!,749.4707729816437,None,749.4520539522172,751.4699599742889,Persönliche Daten sollen geheim bleiben.,bleiben,750.819939827919,753.2704708576202,753.6867637395859,754.7035200595856,766.037393784523,None,767.4542620182037,None,./data/Subject_08/Session_01/Exp_data/2020_Jul_28_1033/rec_QA_run_00_block_000_trial_007.wav,08,01,English,A2,True,False,True,False,False,True,True,True,True,True,True,True,No,No,No,No,No,No,2020_Jul_28_1033,nibs_stage_1,3.2.3,60.07413476026514,
0,0,0,0,0,0,0,0,8,0,8,0,,,,,,,,,,,,,,,,,,,,,,,,,Listen to the question and speak out your answer!,770.5211329460144,None,770.4863831520081,772.5210869312286,Ihre Kinder liegen noch im Bett.,liegen,771.9042987585068,None,774.2377416849137,None,787.1051447153092,None,788.5219359397888,None,./data/Subject_08/Session_01/Exp_data/2020_Jul_28_1033/rec_QA_run_00_block_000_trial_008.wav,08,01,English,A2,True,False,True,False,False,True,True,True,True,True,True,True,No,No,No,No,No,No,2020_Jul_28_1033,nibs_stage_1,3.2.3,60.07413476026514,
0,0,0,0,0,0,0,0,9,0,9,0,,,,,,,,,,,,,,,,,,,,,,,,,Listen to the question and speak out your answer!,791.5554959774017,None,791.5208751678467,793.5556879043579,Was wünschst du dir zum Geburtstag?,wünschst,792.9387998342514,None,795.5057646989823,796.5223278999329,808.1396016836167,None,809.5563318729401,None,./data/Subject_08/Session_01/Exp_data/2020_Jul_28_1033/rec_QA_run_00_block_000_trial_009.wav,08,01,English,A2,True,False,True,False,False,True,True,True,True,True,True,True,No,No,No,No,No,No,2020_Jul_28_1033,nibs_stage_1,3.2.3,60.07413476026514,
0,0,0,0,0,0,0,0,10,0,10,0,,,,,,,,,,,,,,,,,,,,,,,,,Listen to the question and speak out your answer!,812.5898599624634,None,812.5553061485291,814.5899300575256,Sie besichtigen die Sehenswürdigkeiten.,besichtigen,813.9731368780136,None,816.8066508531571,None,829.1740007162094,None,830.5908720493317,None,./data/Subject_08/Session_01/Exp_data/2020_Jul_28_1033/rec_QA_run_00_block_000_trial_010.wav,08,01,English,A2,True,False,True,False,False,True,True,True,True,True,True,True,No,No,No,No,No,No,2020_Jul_28_1033,nibs_stage_1,3.2.3,60.07413476026514,
0,0,0,0,0,0,0,0,11,0,11,0,,,,,,,,,,,,,,,,,,,,,,,,,Listen to the question and speak out your answer!,833.6251120567322,None,833.6064230680466,835.6243550777435,Kann man gekeimte Kartoffeln noch essen?,essen,835.007644867897,None,837.641142821312,None,850.2084407567978,None,851.6251909732819,None,./data/Subject_08/Session_01/Exp_data/2020_Jul_28_1033/rec_QA_run_00_block_000_trial_011.wav,08,01,English,A2,True,False,True,False,False,True,True,True,True,True,True,True,No,No,No,No,No,No,2020_Jul_28_1033,nibs_stage_1,3.2.3,60.07413476026514,
0,0,0,0,0,0,0,0,12,0,12,0,,,,,,,,,,,,,,,,,,,,,,,,,Listen to the question and speak out your answer!,854.692225933075,None,854.6576802253724,856.6921348571777,"Nachdem er nach dem Flugzeugunglück gerettet wurde, hat er an Gott geglaubt.",geglaubt,856.0754098653794,860.5256659984589,860.8756596803665,861.8923778533936,871.2761287450791,872.2929360866547,872.6929650306702,None,./data/Subject_08/Session_01/Exp_data/2020_Jul_28_1033/rec_QA_run_00_block_000_trial_012.wav,08,01,English,A2,True,False,True,False,False,True,True,True,True,True,True,True,No,No,No,No,No,No,2020_Jul_28_1033,nibs_stage_1,3.2.3,60.07413476026514,
0,0,0,0,0,0,0,0,13,0,13,0,,,,,,,,,,,,,,,,,,,,,,,,,Listen to the question and speak out your answer!,875.7267940044403,None,875.7085980653763,877.7265548706055,Die Taxifahrer sollten während Mitternacht nicht hupen.,hupen,877.10983273983,None,880.6433608293534,None,892.3106477022171,None,893.7275929450989,None,./data/Subject_08/Session_01/Exp_data/2020_Jul_28_1033/rec_QA_run_00_block_000_trial_013.wav,08,01,English,A2,True,False,True,False,False,True,True,True,True,True,True,True,No,No,No,No,No,No,2020_Jul_28_1033,nibs_stage_1,3.2.3,60.07413476026514,
0,0,0,0,0,0,0,0,14,0,14,0,,,,,,,,,,,,,,,,,,,,,,,,,Listen to the question and speak out your answer!,896.7628419399261,None,896.7430841207505,898.7609710693359,"Früh übt sich, wer ein Meister werden will.",werden,898.1443998575211,None,901.2777976751328,None,913.3450686693192,914.3618040084839,914.7618219852448,None,./data/Subject_08/Session_01/Exp_data/2020_Jul_28_1033/rec_QA_run_00_block_000_trial_014.wav,08,01,English,A2,True,False,True,False,False,True,True,True,True,True,True,True,No,No,No,No,No,No,2020_Jul_28_1033,nibs_stage_1,3.2.3,60.07413476026514,
0,0,0,0,0,0,0,0,15,0,15,0,,,,,,,,,,,,,,,,,,,,,,,,,Listen to the question and speak out your answer!,917.8292858600616,None,917.794122171402,919.8288700580597,"Der Mann läuft zu schell, um die Post zu schicken.",schicken,919.2120218038559,922.0624439716339,922.4455458879471,None,934.4128808736801,None,935.7962980270386,None,./data/Subject_08/Session_01/Exp_data/2020_Jul_28_1033/rec_QA_run_00_block_000_trial_015.wav,08,01,English,A2,True,False,True,False,False,True,True,True,True,True,True,True,No,No,No,No,No,No,2020_Jul_28_1033,nibs_stage_1,3.2.3,60.07413476026514,
0,0,0,0,0,0,0,0,16,0,16,0,,,,,,,,,,,,,,,,,,,,,,,,,Listen to the question and speak out your answer!,938.863893032074,None,938.8452131032944,940.8632118701935,Sie haben Beeren gesammelt und wilde Tiere gejagt.,gejagt,940.2464718580246,943.5305829048157,943.8800697088242,None,955.4472386598587,None,956.8640139102936,None,./data/Subject_08/Session_01/Exp_data/2020_Jul_28_1033/rec_QA_run_00_block_000_trial_016.wav,08,01,English,A2,True,False,True,False,False,True,True,True,True,True,True,True,No,No,No,No,No,No,2020_Jul_28_1033,nibs_stage_1,3.2.3,60.07413476026514,
0,0,0,0,0,0,0,0,17,0,17,0,,,,,,,,,,,,,,,,,,,,,,,,,Listen to the question and speak out your answer!,959.9314999580383,None,959.8963202953339,961.9309370517731,"Doris ist leider zu spät gekommen, die Apotheke hat heute schon geschlossen.",geschlossen,961.2809037923813,None,966.3811697721482,None,976.4816927671433,977.4987819194794,977.8984479904175,None,./data/Subject_08/Session_01/Exp_data/2020_Jul_28_1033/rec_QA_run_00_block_000_trial_017.wav,08,01,English,A2,True,False,True,False,False,True,True,True,True,True,True,True,No,No,No,No,No,No,2020_Jul_28_1033,nibs_stage_1,3.2.3,60.07413476026514,
0,0,0,0,0,0,0,0,18,0,18,0,,,,,,,,,,,,,,,,,,,,,,,,,Listen to the question and speak out your answer!,980.9661400318146,None,980.9475969552994,982.9653699398041,Er kann mit den Händen an einem Baum hängen.,hängen,982.3487066984177,None,985.1154517889023,986.1322100162506,997.5494856595993,998.5661120414734,998.9662039279938,None,./data/Subject_08/Session_01/Exp_data/2020_Jul_28_1033/rec_QA_run_00_block_000_trial_018.wav,08,01,English,A2,True,False,True,False,False,True,True,True,True,True,True,True,No,No,No,No,No,No,2020_Jul_28_1033,nibs_stage_1,3.2.3,60.07413476026514,
0,0,0,0,0,0,0,0,19,0,19,0,,,,,,,,,,,,,,,,,,,,,,,,,Listen to the question and speak out your answer!,1002.050369977951,None,1002.0151719331742,1004.0499079227448,Wir müssen jemanden mit mehr Erfahrung für diese wichtige Position einstellen.,einstellen,1003.399773812294,1007.8501260280609,1008.2666036844254,None,1018.6005918741226,None,1020.0174000263214,None,./data/Subject_08/Session_01/Exp_data/2020_Jul_28_1033/rec_QA_run_00_block_000_trial_019.wav,08,01,English,A2,True,False,True,False,False,True,True,True,True,True,True,True,No,No,No,No,No,No,2020_Jul_28_1033,nibs_stage_1,3.2.3,60.07413476026514,
0,0,0,0,0,0,0,0,20,0,20,0,,,,,,,,,,,,,,,,,,,,,,,,,Listen to the question and speak out your answer!,1023.0849280357361,None,1023.0667540311814,1025.0842518806458,Wir haben im Wald Beeren und Pilze gesammelt.,gesammelt,1024.434220767021,1027.2510240077972,1027.6343738794326,None,1039.6516678094863,1040.6683950424194,1041.0683958530426,None,./data/Subject_08/Session_01/Exp_data/2020_Jul_28_1033/rec_QA_run_00_block_000_trial_020.wav,08,01,English,A2,True,False,True,False,False,True,True,True,True,True,True,True,No,No,No,No,No,No,2020_Jul_28_1033,nibs_stage_1,3.2.3,60.07413476026514,
0,0,0,0,0,0,0,0,21,0,21,0,,,,,,,,,,,,,,,,,,,,,,,,,Listen to the question and speak out your answer!,1044.1192350387573,None,1044.1007141590117,1046.1188209056854,"Das Buch war witzig, ich habe stundenlang gelacht.",gelacht,1045.50196788311,1048.5188188552856,1048.902079796791,None,1060.7027878522872,None,1062.1194779872894,None,./data/Subject_08/Session_01/Exp_data/2020_Jul_28_1033/rec_QA_run_00_block_000_trial_021.wav,08,01,English,A2,True,False,True,False,False,True,True,True,True,True,True,True,No,No,No,No,No,No,2020_Jul_28_1033,nibs_stage_1,3.2.3,60.07413476026514,
0,0,0,0,0,0,0,0,22,0,22,0,,,,,,,,,,,,,,,,,,,,,,,,,Listen to the question and speak out your answer!,1065.2031729221344,None,1065.1685179948806,1067.203125,Die Erklärungen des Lehrers haben absolut Sinn ergeben.,ergeben,1066.553083872795,1069.9699358940125,1070.3869058847426,None,1081.7538888216018,None,1083.1707780361176,None,./data/Subject_08/Session_01/Exp_data/2020_Jul_28_1033/rec_QA_run_00_block_000_trial_022.wav,08,01,English,A2,True,False,True,False,False,True,True,True,True,True,True,True,No,No,No,No,No,No,2020_Jul_28_1033,nibs_stage_1,3.2.3,60.07413476026514,
0,0,0,0,0,0,0,0,23,0,23,0,,,,,,,,,,,,,,,,,,,,,,,,,Listen to the question and speak out your answer!,1086.2377390861511,None,1086.2195951223373,1088.2375650405884,Der Donau fließt ins Schwarze Meer.,fließt,1087.620889878273,1089.9375610351562,1090.3209926843642,1091.3377299308777,1102.7883207559585,None,1104.2050609588623,None,./data/Subject_08/Session_01/Exp_data/2020_Jul_28_1033/rec_QA_run_00_block_000_trial_023.wav,08,01,English,A2,True,False,True,False,False,True,True,True,True,True,True,True,No,No,No,No,No,No,2020_Jul_28_1033,nibs_stage_1,3.2.3,60.07413476026514,
0,0,0,0,0,0,0,0,24,0,24,0,,,,,,,,,,,,,,,,,,,,,,,,,Listen to the question and speak out your answer!,1107.2735409736633,None,1107.2540380239486,1109.2719910144806,Wir bestellten ein stück Hassnuss Kuchen zum Dessert.,bestellten,1108.655318713188,None,1112.2554797887801,None,1123.8561007738112,1124.872920036316,1125.272933959961,None,./data/Subject_08/Session_01/Exp_data/2020_Jul_28_1033/rec_QA_run_00_block_000_trial_024.wav,08,01,English,A2,True,False,True,False,False,True,True,True,True,True,True,True,No,No,No,No,No,No,2020_Jul_28_1033,nibs_stage_1,3.2.3,60.07413476026514,
0,0,0,0,0,0,0,0,,,,,,,,,,,,,,,,,,1129.2901589870453,None,,,,,,,,,,,,,,,,,,,,,,,,,,08,01,English,A2,True,False,True,False,False,True,True,True,True,True,True,True,No,No,No,No,No,No,2020_Jul_28_1033,nibs_stage_1,3.2.3,60.07413476026514,
0,0,0,0,1,0,1,0,0,0,0,0,,,,,,,,,,,,,,,,,,,,,,,,,Listen to the question and speak out your answer!,1165.8749780654907,None,1165.840028476715,1167.8752028942108,Sie kümmert sich nur um ihre eigenen Angelegenheiten.,kümmert,1167.2582947969436,None,1170.8586857080459,1171.8752808570862,1182.459175801277,None,1183.8759269714355,None,./data/Subject_08/Session_01/Exp_data/2020_Jul_28_1033/rec_QA_run_00_block_001_trial_000.wav,08,01,English,A2,True,False,True,False,False,True,True,True,True,True,True,True,No,No,No,No,No,No,2020_Jul_28_1033,nibs_stage_1,3.2.3,60.07413476026514,
0,0,0,0,1,0,1,0,1,0,1,0,,,,,,,,,,,,,,,,,,,,,,,,,Listen to the question and speak out your answer!,1186.8933629989624,None,1186.8582453489303,1188.8928570747375,"Ist es für den Vermieter möglich, den Mieter nach der Rechtslage zu kündigen?",kündigen,1188.2428118944167,1192.526377916336,1192.9431717157363,None,1203.443750834465,None,1204.860384941101,None,./data/Subject_08/Session_01/Exp_data/2020_Jul_28_1033/rec_QA_run_00_block_001_trial_001.wav,08,01,English,A2,True,False,True,False,False,True,True,True,True,True,True,True,No,No,No,No,No,No,2020_Jul_28_1033,nibs_stage_1,3.2.3,60.07413476026514,
0,0,0,0,1,0,1,0,2,0,2,0,,,,,,,,,,,,,,,,,,,,,,,,,Listen to the question and speak out your answer!,1207.9288370609283,None,1207.9095229387283,1209.9273009300232,Wir schneiden den Apfel in zwei Hälften. ,schneiden,1209.3107068300246,None,1212.444005703926,None,1224.5114006757735,None,1225.9281959533691,None,./data/Subject_08/Session_01/Exp_data/2020_Jul_28_1033/rec_QA_run_00_block_001_trial_002.wav,08,01,English,A2,True,False,True,False,False,True,True,True,True,True,True,True,No,No,No,No,No,No,2020_Jul_28_1033,nibs_stage_1,3.2.3,60.07413476026514,
0,0,0,0,1,0,1,0,3,0,3,0,,,,,,,,,,,,,,,,,,,,,,,,,Listen to the question and speak out your answer!,1228.9456400871277,None,1228.9103753328322,1230.94509100914,"Da der Koffer bereits zu schwer ist, muss ich leichte Kleidung einpacken.",einpacken,1230.2952978372573,None,1234.7955207586288,None,1245.4958188295363,None,1246.912575006485,None,./data/Subject_08/Session_01/Exp_data/2020_Jul_28_1033/rec_QA_run_00_block_001_trial_003.wav,08,01,English,A2,True,False,True,False,False,True,True,True,True,True,True,True,No,No,No,No,No,No,2020_Jul_28_1033,nibs_stage_1,3.2.3,60.07413476026514,
0,0,0,0,1,0,1,0,4,0,4,0,,,,,,,,,,,,,,,,,,,,,,,,,Listen to the question and speak out your answer!,1249.9803130626678,None,1249.96181910038,1251.9796569347382,"Die vier Jahreszeiten heißen Frühling, Sommer, Herbst und Winter.",heißen,1251.3628117799758,None,1256.2630557775497,None,1266.5636508226394,None,1267.9804210662842,None,./data/Subject_08/Session_01/Exp_data/2020_Jul_28_1033/rec_QA_run_00_block_001_trial_004.wav,08,01,English,A2,True,False,True,False,False,True,True,True,True,True,True,True,No,No,No,No,No,No,2020_Jul_28_1033,nibs_stage_1,3.2.3,60.07413476026514,
0,0,0,0,1,0,1,0,5,0,5,0,,,,,,,,,,,,,,,,,,,,,,,,,Listen to the question and speak out your answer!,1271.0478310585022,None,1271.0126583099363,1273.047355890274,"Sie scheinen nicht zu wissen, mit wem Sie es zu tun haben.",scheinen,1272.430567717552,1275.8810539245605,1276.2641536951064,None,1287.631416773796,None,1289.0480408668518,None,./data/Subject_08/Session_01/Exp_data/2020_Jul_28_1033/rec_QA_run_00_block_001_trial_005.wav,08,01,English,A2,True,False,True,False,False,True,True,True,True,True,True,True,No,No,No,No,No,No,2020_Jul_28_1033,nibs_stage_1,3.2.3,60.07413476026514,
0,0,0,0,1,0,1,0,6,0,6,0,,,,,,,,,,,,,,,,,,,,,,,,,Listen to the question and speak out your answer!,1292.0832998752594,None,1292.0638500928878,1294.081731081009,Wir können das Fleisch grillen oder braten.,grillen,1293.465155816078,None,1296.3318338155746,None,1308.6658186674117,1309.68257188797,1310.0825729370117,None,./data/Subject_08/Session_01/Exp_data/2020_Jul_28_1033/rec_QA_run_00_block_001_trial_006.wav,08,01,English,A2,True,False,True,False,False,True,True,True,True,True,True,True,No,No,No,No,No,No,2020_Jul_28_1033,nibs_stage_1,3.2.3,60.07413476026514,
0,0,0,0,1,0,1,0,7,0,7,0,,,,,,,,,,,,,,,,,,,,,,,,,Listen to the question and speak out your answer!,1313.1495170593262,None,1313.114875268936,1315.1495208740234,"Wer im Glashaus sitzt, soll nicht mit Steinen werfen.",werfen,1314.5328087568282,None,1318.1996557474135,None,1329.733622765541,None,1331.1503479480743,None,./data/Subject_08/Session_01/Exp_data/2020_Jul_28_1033/rec_QA_run_00_block_001_trial_007.wav,08,01,English,A2,True,False,True,False,False,True,True,True,True,True,True,True,No,No,No,No,No,No,2020_Jul_28_1033,nibs_stage_1,3.2.3,60.07413476026514,
0,0,0,0,1,0,1,0,8,0,8,0,,,,,,,,,,,,,,,,,,,,,,,,,Listen to the question and speak out your answer!,1334.184473991394,None,1334.149317216873,1336.1838688850403,"Wir sind stolz auf das, was wir bis jetzt geschafft haben.",geschafft,1335.567254757881,1338.9173390865326,1339.300776696205,None,1350.7679648160934,None,1352.1847040653229,None,./data/Subject_08/Session_01/Exp_data/2020_Jul_28_1033/rec_QA_run_00_block_001_trial_008.wav,08,01,English,A2,True,False,True,False,False,True,True,True,True,True,True,True,No,No,No,No,No,No,2020_Jul_28_1033,nibs_stage_1,3.2.3,60.07413476026514,
0,0,0,0,1,0,1,0,9,0,9,0,,,,,,,,,,,,,,,,,,,,,,,,,Listen to the question and speak out your answer!,1355.2183120250702,None,1355.183708143234,1357.2183859348297,An der Kasse bezahlen wir mit Bankomatkarte.,bezahlen,1356.6016506910323,None,1360.035399889946,None,1371.8026067972182,None,1373.2192690372467,None,./data/Subject_08/Session_01/Exp_data/2020_Jul_28_1033/rec_QA_run_00_block_001_trial_009.wav,08,01,English,A2,True,False,True,False,False,True,True,True,True,True,True,True,No,No,No,No,No,No,2020_Jul_28_1033,nibs_stage_1,3.2.3,60.07413476026514,
0,0,0,0,1,0,1,0,10,0,10,0,,,,,,,,,,,,,,,,,,,,,,,,,Listen to the question and speak out your answer!,1376.2536039352417,None,1376.2348851442337,1378.2528290748596,Ich surfe gern im Internet und chatte mit Freunden.,chatte,1377.6027927160262,None,1381.1363517999648,1382.1531419754028,1392.80359480381,None,1394.2203369140625,None,./data/Subject_08/Session_01/Exp_data/2020_Jul_28_1033/rec_QA_run_00_block_001_trial_010.wav,08,01,English,A2,True,False,True,False,False,True,True,True,True,True,True,True,No,No,No,No,No,No,2020_Jul_28_1033,nibs_stage_1,3.2.3,60.07413476026514,
0,0,0,0,1,0,1,0,11,0,11,0,,,,,,,,,,,,,,,,,,,,,,,,,Listen to the question and speak out your answer!,1397.287822008133,None,1397.25265212059,1399.2872779369354,"In Europa gibt es vier Jahrezeiten, am Zentralafrika nur eine.",gibt,1398.6707327127456,None,1403.5708417654037,None,1413.8713688611983,None,1415.2881479263306,None,./data/Subject_08/Session_01/Exp_data/2020_Jul_28_1033/rec_QA_run_00_block_001_trial_011.wav,08,01,English,A2,True,False,True,False,False,True,True,True,True,True,True,True,No,No,No,No,No,No,2020_Jul_28_1033,nibs_stage_1,3.2.3,60.07413476026514,
0,0,0,0,1,0,1,0,12,0,12,0,,,,,,,,,,,,,,,,,,,,,,,,,Listen to the question and speak out your answer!,1418.321711063385,None,1418.3037709474563,1420.3219969272614,Du muss deine schmutzige Kleidung in der Wäscherei waschen.,waschen,1419.6718656778335,None,1423.2389998197555,None,1434.8724846601485,1435.8892500400543,1436.2894098758698,None,./data/Subject_08/Session_01/Exp_data/2020_Jul_28_1033/rec_QA_run_00_block_001_trial_012.wav,08,01,English,A2,True,False,True,False,False,True,True,True,True,True,True,True,No,No,No,No,No,No,2020_Jul_28_1033,nibs_stage_1,3.2.3,60.07413476026514,
0,0,0,0,1,0,1,0,13,0,13,0,,,,,,,,,,,,,,,,,,,,,,,,,Listen to the question and speak out your answer!,1439.4400310516357,None,1439.4047423124312,1441.4395129680634,Er hat Kartoffeln mit der Schale gekocht.,gekocht,1440.8227936983108,1443.239590883255,1443.6229407548904,None,1456.0236277341842,None,1457.4403500556946,None,./data/Subject_08/Session_01/Exp_data/2020_Jul_28_1033/rec_QA_run_00_block_001_trial_013.wav,08,01,English,A2,True,False,True,False,False,True,True,True,True,True,True,True,No,No,No,No,No,No,2020_Jul_28_1033,nibs_stage_1,3.2.3,60.07413476026514,
0,0,0,0,1,0,1,0,14,0,14,0,,,,,,,,,,,,,,,,,,,,,,,,,Listen to the question and speak out your answer!,1460.4905259609222,None,1460.4559880971908,1462.490732908249,Im Frühling besuchen viele Touristen unserer Hauptstadt.,besuchen,1461.840777850151,None,1465.8409716844558,None,1477.0414047002791,None,1478.4581279754639,None,./data/Subject_08/Session_01/Exp_data/2020_Jul_28_1033/rec_QA_run_00_block_001_trial_014.wav,08,01,English,A2,True,False,True,False,False,True,True,True,True,True,True,True,No,No,No,No,No,No,2020_Jul_28_1033,nibs_stage_1,3.2.3,60.07413476026514,
0,0,0,0,1,0,1,0,15,0,15,0,,,,,,,,,,,,,,,,,,,,,,,,,Listen to the question and speak out your answer!,1481.542242050171,None,1481.507121014595,1483.5417430400848,Sam glaubt an eine marxistische Weltanschauung.,glaubt,1482.8917908430099,None,1486.191853737831,None,1498.092554783821,1499.1092228889465,1499.5092520713806,None,./data/Subject_08/Session_01/Exp_data/2020_Jul_28_1033/rec_QA_run_00_block_001_trial_015.wav,08,01,English,A2,True,False,True,False,False,True,True,True,True,True,True,True,No,No,No,No,No,No,2020_Jul_28_1033,nibs_stage_1,3.2.3,60.07413476026514,
0,0,0,0,1,0,1,0,16,0,16,0,,,,,,,,,,,,,,,,,,,,,,,,,Listen to the question and speak out your answer!,1502.5933809280396,None,1502.5582241296768,1504.592922925949,Sein Versprechen klingt glaubwürdig.,klingt,1503.9428066968917,1506.2262589931488,1506.6430468320846,1507.6596710681915,1519.1437208414077,None,1520.5604169368744,None,./data/Subject_08/Session_01/Exp_data/2020_Jul_28_1033/rec_QA_run_00_block_001_trial_016.wav,08,01,English,A2,True,False,True,False,False,True,True,True,True,True,True,True,No,No,No,No,No,No,2020_Jul_28_1033,nibs_stage_1,3.2.3,60.07413476026514,
0,0,0,0,1,0,1,0,17,0,17,0,,,,,,,,,,,,,,,,,,,,,,,,,Listen to the question and speak out your answer!,1523.627240896225,None,1523.5926532268522,1525.627289056778,Die Zugvögel fliegen von Norden nach Süden,fliegen,1525.0105938673018,None,1528.2774197816848,None,1540.2113966703414,None,1541.628159046173,None,./data/Subject_08/Session_01/Exp_data/2020_Jul_28_1033/rec_QA_run_00_block_001_trial_017.wav,08,01,English,A2,True,False,True,False,False,True,True,True,True,True,True,True,No,No,No,No,No,No,2020_Jul_28_1033,nibs_stage_1,3.2.3,60.07413476026514,
0,0,0,0,1,0,1,0,18,0,18,0,,,,,,,,,,,,,,,,,,,,,,,,,Listen to the question and speak out your answer!,1544.6789240837097,None,1544.6440390825271,1546.6784060001373,Briefe und Pakete verschickt man mit der Post.,verschickt,1546.0283598661422,None,1549.3952007055282,1550.4119288921356,1561.2291617155074,None,1562.6459140777588,None,./data/Subject_08/Session_01/Exp_data/2020_Jul_28_1033/rec_QA_run_00_block_001_trial_018.wav,08,01,English,A2,True,False,True,False,False,True,True,True,True,True,True,True,No,No,No,No,No,No,2020_Jul_28_1033,nibs_stage_1,3.2.3,60.07413476026514,
0,0,0,0,1,0,1,0,19,0,19,0,,,,,,,,,,,,,,,,,,,,,,,,,Listen to the question and speak out your answer!,1565.7144210338593,None,1565.6948539495468,1567.7130320072174,Jede Nacht muss ich den Kindern ein Märchen erzählen.,erzählen,1567.0628027677535,1570.079910993576,1570.462985730171,1571.4797039031982,1582.2636377573012,1583.2804758548737,1583.6803679466248,None,./data/Subject_08/Session_01/Exp_data/2020_Jul_28_1033/rec_QA_run_00_block_001_trial_019.wav,08,01,English,A2,True,False,True,False,False,True,True,True,True,True,True,True,No,No,No,No,No,No,2020_Jul_28_1033,nibs_stage_1,3.2.3,60.07413476026514,
0,0,0,0,1,0,1,0,20,0,20,0,,,,,,,,,,,,,,,,,,,,,,,,,Listen to the question and speak out your answer!,1586.7306110858917,None,1586.696231341362,1588.7309498786926,Aufgrund der globalen Erwärmung werden die Häuser der Inselbewohner im Meer versinken.,versinken,1588.1139647722243,1593.0644779205322,1593.4475466966628,None,1603.314731812477,1604.3314549922943,1604.7315950393677,None,./data/Subject_08/Session_01/Exp_data/2020_Jul_28_1033/rec_QA_run_00_block_001_trial_020.wav,08,01,English,A2,True,False,True,False,False,True,True,True,True,True,True,True,No,No,No,No,No,No,2020_Jul_28_1033,nibs_stage_1,3.2.3,60.07413476026514,
0,0,0,0,1,0,1,0,21,0,21,0,,,,,,,,,,,,,,,,,,,,,,,,,Listen to the question and speak out your answer!,1607.765858888626,None,1607.7471110105514,1609.7650780677795,"Wer viele CO2-Emissionen produziert, belastet die Umwelt.",belastet,1609.1483528375625,1613.3986139297485,1613.7819738149642,None,1624.3158507108687,1625.3325688838959,1625.73259806633,None,./data/Subject_08/Session_01/Exp_data/2020_Jul_28_1033/rec_QA_run_00_block_001_trial_021.wav,08,01,English,A2,True,False,True,False,False,True,True,True,True,True,True,True,No,No,No,No,No,No,2020_Jul_28_1033,nibs_stage_1,3.2.3,60.07413476026514,
0,0,0,0,1,0,1,0,22,0,22,0,,,,,,,,,,,,,,,,,,,,,,,,,Listen to the question and speak out your answer!,1628.7832989692688,None,1628.764856290817,1630.7828500270844,Ein gutes Gehalt heißt oft harte Arbeit.,heißt,1630.1661686658858,1632.9162909984589,1633.2997588872909,None,1645.366941666603,None,1646.7837159633636,None,./data/Subject_08/Session_01/Exp_data/2020_Jul_28_1033/rec_QA_run_00_block_001_trial_022.wav,08,01,English,A2,True,False,True,False,False,True,True,True,True,True,True,True,No,No,No,No,No,No,2020_Jul_28_1033,nibs_stage_1,3.2.3,60.07413476026514,
0,0,0,0,1,0,1,0,23,0,23,0,,,,,,,,,,,,,,,,,,,,,,,,,Listen to the question and speak out your answer!,1649.8677170276642,None,1649.833054947853,1651.8673498630524,Ich musste für meinen Vortrag eine Menge Informationen sammeln.,sammeln,1651.2172527074813,None,1655.4174737691878,None,1666.418058848381,None,1667.8348100185394,None,./data/Subject_08/Session_01/Exp_data/2020_Jul_28_1033/rec_QA_run_00_block_001_trial_023.wav,08,01,English,A2,True,False,True,False,False,True,True,True,True,True,True,True,No,No,No,No,No,No,2020_Jul_28_1033,nibs_stage_1,3.2.3,60.07413476026514,
0,0,0,0,1,0,1,0,24,0,24,0,,,,,,,,,,,,,,,,,,,,,,,,,Listen to the question and speak out your answer!,1670.9028570652008,None,1670.8837560892105,1672.9016749858856,Das Programm kannst Du kostenlos herunterladen.,herunterladen,1672.2853107213973,1675.201861858368,1675.58541867733,1676.6021208763123,1687.485839819908,None,1688.902636051178,None,./data/Subject_08/Session_01/Exp_data/2020_Jul_28_1033/rec_QA_run_00_block_001_trial_024.wav,08,01,English,A2,True,False,True,False,False,True,True,True,True,True,True,True,No,No,No,No,No,No,2020_Jul_28_1033,nibs_stage_1,3.2.3,60.07413476026514,
