run.thisRepN,run.thisTrialN,run.thisN,run.thisIndex,artifact_trial.thisRepN,artifact_trial.thisTrialN,artifact_trial.thisN,artifact_trial.thisIndex,QA_block.thisRepN,QA_block.thisTrialN,QA_block.thisN,QA_block.thisIndex,QA_trial.thisRepN,QA_trial.thisTrialN,QA_trial.thisN,QA_trial.thisIndex,fade_in_text.text,fade_in_text.started,fade_in_text.stopped,Artifact_intro_title.started,Artifact_intro_title.stopped,Artifact_intro_text.text,Artifact_intro_text.started,Artifact_intro_text.stopped,Artifact_intro_audio.started,Artifact_intro_audio.stopped,Artifact_intro_cont.started,Artifact_intro_cont.stopped,Artifact_rec_text.text,Artifact_rec_text.started,Artifact_rec_text.stopped,Artifact_rec_beep_hint.started,Artifact_rec_beep_hint.stopped,Artifact_rec_action.started,Artifact_rec_action.stopped,Artifact_rec_beep_start.started,Artifact_rec_beep_start.stopped,Artifact_rec_recording.started,Artifact_rec_recording.stopped,Artifact_rec_beep_end.started,Artifact_rec_beep_end.stopped,Artifact_rec_break.started,Artifact_rec_break.stopped,RS_intro_title.started,RS_intro_title.stopped,RS_intro_text.text,RS_intro_text.started,RS_intro_text.stopped,RS_intro_audio.started,RS_intro_audio.stopped,RS_rec_text.text,RS_rec_text.started,RS_rec_text.stopped,Pause_cont.started,Pause_cont.stopped,QA_intro_title.started,QA_intro_title.stopped,QA_intro_text.text,QA_intro_text.started,QA_intro_text.stopped,QA_intro_audio.started,QA_intro_audio.stopped,QA_intro_cont.started,QA_intro_cont.stopped,QA_rec_text.text,QA_rec_text.started,QA_rec_text.stopped,QA_rec_beep_hint.started,QA_rec_beep_hint.stopped,QA_rec_question.sen_text,QA_rec_question.cen_text,QA_rec_question.started,QA_rec_question.stopped,QA_rec_beep_start.started,QA_rec_beep_start.stopped,QA_rec_beep_end.started,QA_rec_beep_end.stopped,QA_rec_break.started,QA_rec_break.stopped,filename,participant,session,First language,German level,Full_screen,Instruction,Intro,Artifact,Cali_pre,Fade_in_out,Artifact_within,Resting_State,QA,Pause,Cali_post,End,Breakpoint_Cali_pre_trial,Breakpoint_Run,Breakpoint_RS_block,Breakpoint_QA_block,Breakpoint_QA_trial,Breakpoint_Cali_post_trial,date,expName,psychopyVersion,frameRate,
2,0,2,0,0,0,0,0,,,,,,,,,Please remain seated until further instruction via the earphone.,62.728830099105835,None,64.76253509521484,91.76375317573547,"  - Task: Artifacts collection   
  - Please follow audio instruction              
",64.76253509521484,91.76375317573547,64.74617567062378,None,91.13040113449097,None,,94.6472110748291,None,94.63110961914063,96.63079500198364,96.01411833763123,None,99.41416635513306,None,100.81424345970154,110.81474208831787,111.2147623538971,None,112.61484599113464,113.61489915847778,,,,,,,,,,,,,,,,,,,,,,,,,,,,,,,,,,,,,,08,01,English,A2,True,False,True,False,False,True,True,True,True,True,True,True,No,2,No,No,No,No,2020_Jul_28_1149,nibs_stage_1,3.2.3,60.04094054459514,
2,0,2,0,1,0,1,0,,,,,,,,,,,,,,,,,,,,,,116.64898419380188,None,116.6489676475525,118.6486120223999,118.03180041313172,None,121.43198528289795,None,122.83204641342164,132.83260822296143,133.2325924873352,None,134.63278818130493,135.63271403312683,,,,,,,,,,,,,,,,,,,,,,,,,,,,,,,,,,,,,,08,01,English,A2,True,False,True,False,False,True,True,True,True,True,True,True,No,2,No,No,No,No,2020_Jul_28_1149,nibs_stage_1,3.2.3,60.04094054459514,
2,0,2,0,2,0,2,0,,,,,,,,,,,,,,,,,,,,,,138.66634821891785,138.66634821891785,138.65011157989503,140.64989709854126,140.04983344078065,None,143.44992747306824,None,144.8501314163208,154.85059118270874,155.25068249702454,None,156.6507170200348,157.65096020698547,,,,,,,,,,,,,,,,,,,,,,,,,,,,,,,,,,,,,,08,01,English,A2,True,False,True,False,False,True,True,True,True,True,True,True,No,2,No,No,No,No,2020_Jul_28_1149,nibs_stage_1,3.2.3,60.04094054459514,
2,0,2,0,3,0,3,0,,,,,,,,,,,,,,,,,,,,,,160.66791915893555,None,160.66816368103028,162.66771602630615,162.0510043144226,None,165.45117630958558,None,166.85143342018128,176.8517551422119,177.25177445411683,None,178.65185403823853,179.6518371105194,,,,,,,,,,,,,,,,,,,,,,,,,,,,,,,,,,,,,,08,01,English,A2,True,False,True,False,False,True,True,True,True,True,True,True,No,2,No,No,No,No,2020_Jul_28_1149,nibs_stage_1,3.2.3,60.04094054459514,
2,0,2,0,4,0,4,0,,,,,,,,,,,,,,,,,,,,,,182.68535017967224,182.68535017967224,182.66929879188538,184.6688380241394,184.06873526573182,None,187.46890630722046,188.46902799606323,188.86907329559327,198.86950016021729,199.26962532997132,None,200.6696741580963,201.66991019248962,,,,,,,,,,,,,,,,,,,,,,,,,,,,,,,,,,,,,,08,01,English,A2,True,False,True,False,False,True,True,True,True,True,True,True,No,2,No,No,No,No,2020_Jul_28_1149,nibs_stage_1,3.2.3,60.04094054459514,
2,0,2,0,5,0,5,0,,,,,,,,,,,,,,,,,,,,,,204.68690299987793,None,204.68714060783387,206.6866431236267,206.06996335983277,None,209.47013845443726,210.47012209892273,210.87048830986024,220.87077021598816,221.2708052635193,None,222.67074704170227,223.67086005210876,,,,,,,,,,,,,,,,,,,,,,,,,,,,,,,,,,,,,,08,01,English,A2,True,False,True,False,False,True,True,True,True,True,True,True,No,2,No,No,No,No,2020_Jul_28_1149,nibs_stage_1,3.2.3,60.04094054459514,
2,0,2,0,6,0,6,0,,,,,,,,,,,,,,,,,,,,,,226.7048580646515,226.7048580646515,226.68827476501465,228.68779110908508,228.0884343624115,None,231.4880093574524,232.4880120754242,232.88803448677064,242.88845109939575,243.28888931274415,None,244.68868017196655,245.6887011528015,,,,,,,,,,,,,,,,,,,,,,,,,,,,,,,,,,,,,,08,01,English,A2,True,False,True,False,False,True,True,True,True,True,True,True,No,2,No,No,No,No,2020_Jul_28_1149,nibs_stage_1,3.2.3,60.04094054459514,
2,0,2,0,7,0,7,0,,,,,,,,,,,,,,,,,,,,,,248.72219610214233,None,248.70611562728882,250.70564317703247,250.08893337249756,253.08915901184082,253.4891513824463,None,254.88953127861024,264.88970613479614,265.28975930213926,None,266.6898012161255,267.6898601055145,,,,,,,,,,,,,,,,,,,,,,,,,,,,,,,,,,,,,,08,01,English,A2,True,False,True,False,False,True,True,True,True,True,True,True,No,2,No,No,No,No,2020_Jul_28_1149,nibs_stage_1,3.2.3,60.04094054459514,
2,0,2,0,8,0,8,0,,,,,,,,,,,,,,,,,,,,,,270.7400040626526,None,270.72396364212034,272.72336602211,272.1067673206329,275.10707116127014,275.5069164276123,None,276.90717043876646,286.9075210094452,287.30756344795225,None,288.7073130607605,289.70736718177795,,,,,,,,,,,,,,,,,,,,,,,,,,,,,,,,,,,,,,08,01,English,A2,True,False,True,False,False,True,True,True,True,True,True,True,No,2,No,No,No,No,2020_Jul_28_1149,nibs_stage_1,3.2.3,60.04094054459514,
2,0,2,0,9,0,9,0,,,,,,,,,,,,,,,,,,,,,,292.75771021842957,None,292.7415145874023,294.74104404449463,294.12437143325803,297.12451910972595,297.52446737289426,298.52457904815674,298.92460145950315,308.9253921508789,309.3251534938812,None,310.7251410484314,311.7252721786499,,,,,,,,,,,,,,,,,,,,,,,,,,,,,,,,,,,,,,08,01,English,A2,True,False,True,False,False,True,True,True,True,True,True,True,No,2,No,No,No,No,2020_Jul_28_1149,nibs_stage_1,3.2.3,60.04094054459514,
2,0,2,0,10,0,10,0,,,,,,,,,,,,,,,,,,,,,,314.77638506889343,None,314.75924077033994,316.75914001464844,316.1423994541168,None,319.5425902843475,320.54258012771606,320.9426013469696,330.94315814971924,331.3431774616241,None,332.7432541847229,333.74338603019714,,,,,,,,,,,,,,,,,,,,,,,,,,,,,,,,,,,,,,08,01,English,A2,True,False,True,False,False,True,True,True,True,True,True,True,No,2,No,No,No,No,2020_Jul_28_1149,nibs_stage_1,3.2.3,60.04094054459514,
2,0,2,0,11,0,11,0,,,,,,,,,,,,,,,,,,,,,,336.7940411567688,None,336.7773467540741,338.7766160964966,338.16002144813535,None,341.5602072715759,342.5602331161499,342.9602543354034,352.9607810974121,353.3608013629913,None,354.76097321510315,355.76082015037537,,,,,,,,,,,,,,,,,,,,,,,,,,,,,,,,,,,,,,08,01,English,A2,True,False,True,False,False,True,True,True,True,True,True,True,No,2,No,No,No,No,2020_Jul_28_1149,nibs_stage_1,3.2.3,60.04094054459514,
2,0,2,0,12,0,12,0,,,,,,,,,,,,,,,,,,,,,,358.8111410140991,None,358.7950326442718,360.79452419281006,360.17772045135496,363.17789220809937,363.57792630195615,None,364.9780754089355,374.97889018058777,375.3786224365234,None,376.77898120880127,377.7787380218506,,,,,,,,,,,,,,,,,,,,,,,,,,,,,,,,,,,,,,08,01,English,A2,True,False,True,False,False,True,True,True,True,True,True,True,No,2,No,No,No,No,2020_Jul_28_1149,nibs_stage_1,3.2.3,60.04094054459514,
2,0,2,0,13,0,13,0,,,,,,,,,,,,,,,,,,,,,,380.8293721675873,None,380.8129257202148,382.81248903274536,382.19584527015684,None,385.5958093643188,386.5958671569824,386.9958743095398,396.9964051246643,397.3964263439178,None,398.796658039093,399.7965462207794,,,,,,,,,,,,,,,,,,,,,,,,,,,,,,,,,,,,,,08,01,English,A2,True,False,True,False,False,True,True,True,True,True,True,True,No,2,No,No,No,No,2020_Jul_28_1149,nibs_stage_1,3.2.3,60.04094054459514,
2,0,2,0,14,0,14,0,,,,,,,,,,,,,,,,,,,,,,402.8468301296234,None,402.83061065673826,404.8301651477814,404.21345534324644,None,407.61355247497556,408.6136751174927,409.0137113571167,419.0142412185669,419.41425838470457,None,420.81432008743286,421.8143651485443,,,,,,,,,,,,,,,,,,,,,,,,,,,,,,,,,,,,,,08,01,English,A2,True,False,True,False,False,True,True,True,True,True,True,True,No,2,No,No,No,No,2020_Jul_28_1149,nibs_stage_1,3.2.3,60.04094054459514,
2,0,2,0,,,,,0,0,0,0,0,0,0,0,,,,,,,,,,,,,,,,,,,,,,,,,,,,632.2590131759644,None," - Task: Keep seated and relaxed with either      
             opening or closing eyes                  
 - Beep sound with decreasing pitch: Block finish 
",632.2590131759644,None,632.2428918361663,None,"Please keep relaxed and close your eyes.
",655.2768151760101,835.2863302230835,838.6700441837311,None,859.6545372009277,899.6728210449219," - Task: Listen to the question& Speak out answer 
 - Melodious beep sound: Trial start              
 - Silent sound (blank): censored word            
 - Beep sound with increasing pitch: Rec. start   
 - Beep sound with decreasing pitch: Rec. finish  
",859.6545372009277,899.6728210449219,859.63823928833,None,899.0394401550293,None,Listen to the question and speak out your answer!,904.1230571269989,None,904.1072416782379,906.1065201759338,"Weil er so hungrig war, hat Franz einmal einen Apfel gestohlen.",gestohlen,905.4897183418274,909.2565960884094,909.6733554840088,910.6735541820526,920.6906084060669,921.6905732154846,922.0906760692596,923.0907142162323,./data/Subject_08/Session_01/Exp_data/2020_Jul_28_1149/rec_QA_run_02_block_000_trial_000.wav,08,01,English,A2,True,False,True,False,False,True,True,True,True,True,True,True,No,2,No,No,No,No,2020_Jul_28_1149,nibs_stage_1,3.2.3,60.04094054459514,
2,0,2,0,,,,,0,0,0,0,1,0,1,0,,,,,,,,,,,,,,,,,,,,,,,,,,,,,,,,,,,,,,,,,,,,,,,,,Listen to the question and speak out your answer!,925.1576070785522,None,925.1415069580078,927.1408591270447,Antragsteller für ein Visum können online ein Formular ausfüllen.,ausfüllen,926.5242523193359,930.3911080360413,930.7911244869232,None,941.725046300888,None,943.125018119812,944.1251649856567,./data/Subject_08/Session_01/Exp_data/2020_Jul_28_1149/rec_QA_run_02_block_000_trial_001.wav,08,01,English,A2,True,False,True,False,False,True,True,True,True,True,True,True,No,2,No,No,No,No,2020_Jul_28_1149,nibs_stage_1,3.2.3,60.04094054459514,
2,0,2,0,,,,,0,0,0,0,2,0,2,0,,,,,,,,,,,,,,,,,,,,,,,,,,,,,,,,,,,,,,,,,,,,,,,,,Listen to the question and speak out your answer!,946.1920440196991,None,946.1759689331054,948.1753849983215,"Sie besichtigten das Haus, bevor sie es kauften.",besichtigten,947.5586854457855,950.7088451385498,951.1088553905487,None,962.7595354557037,963.75954413414,964.1595470905304,965.1595261096954,./data/Subject_08/Session_01/Exp_data/2020_Jul_28_1149/rec_QA_run_02_block_000_trial_002.wav,08,01,English,A2,True,False,True,False,False,True,True,True,True,True,True,True,No,2,No,No,No,No,2020_Jul_28_1149,nibs_stage_1,3.2.3,60.04094054459514,
2,0,2,0,,,,,0,0,0,0,3,0,3,0,,,,,,,,,,,,,,,,,,,,,,,,,,,,,,,,,,,,,,,,,,,,,,,,,Listen to the question and speak out your answer!,967.2263510227203,None,967.2103908538818,969.2098112106323,Die Kellnerin schenkte den Kunden Wein nach.,schenkte,968.5932353973388,None,971.710099363327,972.7099990844727,983.7939344882965,None,985.210764169693,986.2107200622559,./data/Subject_08/Session_01/Exp_data/2020_Jul_28_1149/rec_QA_run_02_block_000_trial_003.wav,08,01,English,A2,True,False,True,False,False,True,True,True,True,True,True,True,No,2,No,No,No,No,2020_Jul_28_1149,nibs_stage_1,3.2.3,60.04094054459514,
2,0,2,0,,,,,0,0,0,0,4,0,4,0,,,,,,,,,,,,,,,,,,,,,,,,,,,,,,,,,,,,,,,,,,,,,,,,,Listen to the question and speak out your answer!,988.2608230113983,None,988.2447379112243,990.2444751262665,Ich werde Ihnen das Kapital mit Zinsen zurückgegeben.,zurückgegeben,989.6275564670563,None,993.4112144947052,994.4112071990967,1004.8283633232116,None,1006.2284481525421,1007.2284750938416,./data/Subject_08/Session_01/Exp_data/2020_Jul_28_1149/rec_QA_run_02_block_000_trial_004.wav,08,01,English,A2,True,False,True,False,False,True,True,True,True,True,True,True,No,2,No,No,No,No,2020_Jul_28_1149,nibs_stage_1,3.2.3,60.04094054459514,
2,0,2,0,,,,,0,0,0,0,5,0,5,0,,,,,,,,,,,,,,,,,,,,,,,,,,,,,,,,,,,,,,,,,,,,,,,,,Listen to the question and speak out your answer!,1009.3119962215424,None,1009.2969133377075,1011.3122169971466,Die Bergarbeiter fuhren jeden Tag in die Grube.,fuhren,1010.6789373397827,1013.8458080291748,1014.245543384552,None,1025.8801573753358,None,1027.2801032066345,1028.2798202037811,./data/Subject_08/Session_01/Exp_data/2020_Jul_28_1149/rec_QA_run_02_block_000_trial_005.wav,08,01,English,A2,True,False,True,False,False,True,True,True,True,True,True,True,No,2,No,No,No,No,2020_Jul_28_1149,nibs_stage_1,3.2.3,60.04094054459514,
2,0,2,0,,,,,0,0,0,0,6,0,6,0,,,,,,,,,,,,,,,,,,,,,,,,,,,,,,,,,,,,,,,,,,,,,,,,,Listen to the question and speak out your answer!,1030.3466250896454,None,1030.3306980609896,1032.330048084259,"Dem Patienten geht es viel besser, so dass der Arzt ihm das Rauchen erlaubte.",erlaubte,1031.7301763534547,1036.2802801132202,1036.6802603244782,None,1046.93080034256,None,1048.3308880329132,1049.3309190273285,./data/Subject_08/Session_01/Exp_data/2020_Jul_28_1149/rec_QA_run_02_block_000_trial_006.wav,08,01,English,A2,True,False,True,False,False,True,True,True,True,True,True,True,No,2,No,No,No,No,2020_Jul_28_1149,nibs_stage_1,3.2.3,60.04094054459514,
2,0,2,0,,,,,0,0,0,0,7,0,7,0,,,,,,,,,,,,,,,,,,,,,,,,,,,,,,,,,,,,,,,,,,,,,,,,,Listen to the question and speak out your answer!,1051.380951166153,None,1051.3649368762972,1053.3647379875183,Bitte zerstören Sie nicht die Natur!,zerstören,1052.7650403022767,None,1055.4479123592378,None,1067.9652763843537,1068.9653871059418,1069.3654391765594,1070.3653771877289,./data/Subject_08/Session_01/Exp_data/2020_Jul_28_1149/rec_QA_run_02_block_000_trial_007.wav,08,01,English,A2,True,False,True,False,False,True,True,True,True,True,True,True,No,2,No,No,No,No,2020_Jul_28_1149,nibs_stage_1,3.2.3,60.04094054459514,
2,0,2,0,,,,,0,0,0,0,8,0,8,0,,,,,,,,,,,,,,,,,,,,,,,,,,,,,,,,,,,,,,,,,,,,,,,,,Listen to the question and speak out your answer!,1072.4160470962524,None,1072.3993950366976,1074.3989000320435,"Bevor man eine Orange essen kann, muss man sie erst schneiden oder schälen.",schälen,1073.7821942806245,1078.1324350833893,1078.5324672698976,None,1088.982935333252,1089.9830691814423,1090.3830590248108,1091.383316040039,./data/Subject_08/Session_01/Exp_data/2020_Jul_28_1149/rec_QA_run_02_block_000_trial_008.wav,08,01,English,A2,True,False,True,False,False,True,True,True,True,True,True,True,No,2,No,No,No,No,2020_Jul_28_1149,nibs_stage_1,3.2.3,60.04094054459514,
2,0,2,0,,,,,0,0,0,0,9,0,9,0,,,,,,,,,,,,,,,,,,,,,,,,,,,,,,,,,,,,,,,,,,,,,,,,,Listen to the question and speak out your answer!,1093.4503881931305,None,1093.4338670253755,1095.4333732128143,"Wir werden später bestellen, denn es fehlen noch einige Gäste.",fehlen,1094.8166564941407,None,1099.0169023513795,1100.0172281265259,1110.0174514293672,None,1111.4175519943237,1112.434159040451,./data/Subject_08/Session_01/Exp_data/2020_Jul_28_1149/rec_QA_run_02_block_000_trial_009.wav,08,01,English,A2,True,False,True,False,False,True,True,True,True,True,True,True,No,2,No,No,No,No,2020_Jul_28_1149,nibs_stage_1,3.2.3,60.04094054459514,
2,0,2,0,,,,,0,0,0,0,10,0,10,0,,,,,,,,,,,,,,,,,,,,,,,,,,,,,,,,,,,,,,,,,,,,,,,,,Listen to the question and speak out your answer!,1114.5007860660553,None,1114.4681768894197,1116.5008840560913,"Ich kann prüfen, ob wir diese Hose auf Lager haben.",prüfen,1115.8841833114625,1119.1010479927063,1119.4843183994294,None,1131.0850123405457,None,1132.5017161369324,None,./data/Subject_08/Session_01/Exp_data/2020_Jul_28_1149/rec_QA_run_02_block_000_trial_010.wav,08,01,English,A2,True,False,True,False,False,True,True,True,True,True,True,True,No,2,No,No,No,No,2020_Jul_28_1149,nibs_stage_1,3.2.3,60.04094054459514,
2,0,2,0,,,,,0,0,0,0,11,0,11,0,,,,,,,,,,,,,,,,,,,,,,,,,,,,,,,,,,,,,,,,,,,,,,,,,Listen to the question and speak out your answer!,1135.502132177353,None,1135.4858507156373,1137.5020081996918,Einige NGOs schützen die Rechte der Menschen.,schützen,1136.8853043556214,1139.902132987976,1140.2854904174806,None,1152.0695423126222,None,1153.4862201213837,None,./data/Subject_08/Session_01/Exp_data/2020_Jul_28_1149/rec_QA_run_02_block_000_trial_011.wav,08,01,English,A2,True,False,True,False,False,True,True,True,True,True,True,True,No,2,No,No,No,No,2020_Jul_28_1149,nibs_stage_1,3.2.3,60.04094054459514,
2,0,2,0,,,,,0,0,0,0,12,0,12,0,,,,,,,,,,,,,,,,,,,,,,,,,,,,,,,,,,,,,,,,,,,,,,,,,Listen to the question and speak out your answer!,1156.536945104599,None,1156.5202470302584,1158.5363581180573,"Hans arbeitet in einer Schule, er ist der Direktor.",arbeitet,1157.9197553634644,1161.1032350063324,1161.486562395096,None,1173.1205393314362,None,1174.537257194519,None,./data/Subject_08/Session_01/Exp_data/2020_Jul_28_1149/rec_QA_run_02_block_000_trial_012.wav,08,01,English,A2,True,False,True,False,False,True,True,True,True,True,True,True,No,2,No,No,No,No,2020_Jul_28_1149,nibs_stage_1,3.2.3,60.04094054459514,
2,0,2,0,,,,,0,0,0,0,13,0,13,0,,,,,,,,,,,,,,,,,,,,,,,,,,,,,,,,,,,,,,,,,,,,,,,,,Listen to the question and speak out your answer!,1177.5890340805054,None,1177.571368980408,1179.5875720977783,Charles Darwin hat die Natur erforscht.,erforscht,1178.9708634853364,1181.3879351615906,1181.7376553058625,1182.754382133484,1194.1716813087464,1195.1883699893951,1195.5884330272675,None,./data/Subject_08/Session_01/Exp_data/2020_Jul_28_1149/rec_QA_run_02_block_000_trial_013.wav,08,01,English,A2,True,False,True,False,False,True,True,True,True,True,True,True,No,2,No,No,No,No,2020_Jul_28_1149,nibs_stage_1,3.2.3,60.04094054459514,
2,0,2,0,,,,,0,0,0,0,14,0,14,0,,,,,,,,,,,,,,,,,,,,,,,,,,,,,,,,,,,,,,,,,,,,,,,,,Listen to the question and speak out your answer!,1198.6553010940552,None,1198.6224689960482,1200.6552422046661,Das Unternehmen wird nächste Woche die Jahresprämie bezahlen.,bezahlen,1200.0387374401093,1203.7224361896515,1204.105522298813,None,1215.2394162654878,1216.256189107895,1216.6561930179596,None,./data/Subject_08/Session_01/Exp_data/2020_Jul_28_1149/rec_QA_run_02_block_000_trial_014.wav,08,01,English,A2,True,False,True,False,False,True,True,True,True,True,True,True,No,2,No,No,No,No,2020_Jul_28_1149,nibs_stage_1,3.2.3,60.04094054459514,
2,0,2,0,,,,,0,0,0,0,15,0,15,0,,,,,,,,,,,,,,,,,,,,,,,,,,,,,,,,,,,,,,,,,,,,,,,,,Listen to the question and speak out your answer!,1219.6899762153625,None,1219.6735441207886,1221.689777135849,Die Polizei hat die Einzelheiten des gestohlenen Autos auf einem Zettel notiert.,notiert,1221.073003435135,1225.990002155304,1226.3733533859254,None,1236.2738663196565,None,1237.6906321048737,None,./data/Subject_08/Session_01/Exp_data/2020_Jul_28_1149/rec_QA_run_02_block_000_trial_015.wav,08,01,English,A2,True,False,True,False,False,True,True,True,True,True,True,True,No,2,No,No,No,No,2020_Jul_28_1149,nibs_stage_1,3.2.3,60.04094054459514,
2,0,2,0,,,,,0,0,0,0,16,0,16,0,,,,,,,,,,,,,,,,,,,,,,,,,,,,,,,,,,,,,,,,,,,,,,,,,Listen to the question and speak out your answer!,1240.7244551181793,None,1240.708026123047,1242.724335193634,"Ich hoffe, dass alles gut geht. ",hoffe,1242.107522392273,None,1244.3409782886506,None,1257.3083824157716,None,1258.7251591682434,None,./data/Subject_08/Session_01/Exp_data/2020_Jul_28_1149/rec_QA_run_02_block_000_trial_016.wav,08,01,English,A2,True,False,True,False,False,True,True,True,True,True,True,True,No,2,No,No,No,No,2020_Jul_28_1149,nibs_stage_1,3.2.3,60.04094054459514,
2,0,2,0,,,,,0,0,0,0,17,0,17,0,,,,,,,,,,,,,,,,,,,,,,,,,,,,,,,,,,,,,,,,,,,,,,,,,Listen to the question and speak out your answer!,1261.7597579956055,None,1261.7425622463227,1263.758733034134,"Sie hat Jogurt, Milch, Banana, Brot etc. im Supermarkt eingekauft.",eingekauft,1263.1420313358308,1268.1588652133942,1268.5422293186189,None,1278.309414291382,1279.3261671066284,1279.726166009903,1280.7595481872559,./data/Subject_08/Session_01/Exp_data/2020_Jul_28_1149/rec_QA_run_02_block_000_trial_017.wav,08,01,English,A2,True,False,True,False,False,True,True,True,True,True,True,True,No,2,No,No,No,No,2020_Jul_28_1149,nibs_stage_1,3.2.3,60.04094054459514,
2,0,2,0,,,,,0,0,0,0,18,0,18,0,,,,,,,,,,,,,,,,,,,,,,,,,,,,,,,,,,,,,,,,,,,,,,,,,Listen to the question and speak out your answer!,1282.8436260223389,None,1282.810238313675,1284.843090057373,Die friedlichen Pandas kommen aus China.,kommen,1284.1931034564973,1286.7098472118378,1287.1265434265138,None,1299.3941384792329,1300.410572052002,1300.8105931282043,None,./data/Subject_08/Session_01/Exp_data/2020_Jul_28_1149/rec_QA_run_02_block_000_trial_018.wav,08,01,English,A2,True,False,True,False,False,True,True,True,True,True,True,True,No,2,No,No,No,No,2020_Jul_28_1149,nibs_stage_1,3.2.3,60.04094054459514,
2,0,2,0,,,,,0,0,0,0,19,0,19,0,,,,,,,,,,,,,,,,,,,,,,,,,,,,,,,,,,,,,,,,,,,,,,,,,Listen to the question and speak out your answer!,1303.8790991306305,None,1303.8613512039185,1305.8775491714478,Er hilft der alten Frau beim Einsteigen ins Auto.,hilft,1305.2274984359742,None,1308.8276733398438,None,1320.4282843112946,None,1321.8450100421906,None,./data/Subject_08/Session_01/Exp_data/2020_Jul_28_1149/rec_QA_run_02_block_000_trial_019.wav,08,01,English,A2,True,False,True,False,False,True,True,True,True,True,True,True,No,2,No,No,No,No,2020_Jul_28_1149,nibs_stage_1,3.2.3,60.04094054459514,
2,0,2,0,,,,,0,0,0,0,20,0,20,0,,,,,,,,,,,,,,,,,,,,,,,,,,,,,,,,,,,,,,,,,,,,,,,,,Listen to the question and speak out your answer!,1324.9287102222443,None,1324.8958153247834,1326.9286530017853,"Ich muss meinen Nachnamen oft langsam buchstabieren, weil er zu selten ist.",buchstabieren,1326.278607273102,1330.7621750831604,1331.145573282242,None,1341.4794262886048,None,1342.8961861133575,None,./data/Subject_08/Session_01/Exp_data/2020_Jul_28_1149/rec_QA_run_02_block_000_trial_020.wav,08,01,English,A2,True,False,True,False,False,True,True,True,True,True,True,True,No,2,No,No,No,No,2020_Jul_28_1149,nibs_stage_1,3.2.3,60.04094054459514,
2,0,2,0,,,,,0,0,0,0,21,0,21,0,,,,,,,,,,,,,,,,,,,,,,,,,,,,,,,,,,,,,,,,,,,,,,,,,Listen to the question and speak out your answer!,1345.9640970230103,None,1345.9468843460083,1347.9630751609802,Leni bewegt beim Lesen die Lippen.,bewegt,1347.3463872909547,1349.529823064804,1349.9133123397828,1350.9299051761627,1362.547242307663,None,1363.963935136795,None,./data/Subject_08/Session_01/Exp_data/2020_Jul_28_1149/rec_QA_run_02_block_000_trial_021.wav,08,01,English,A2,True,False,True,False,False,True,True,True,True,True,True,True,No,2,No,No,No,No,2020_Jul_28_1149,nibs_stage_1,3.2.3,60.04094054459514,
2,0,2,0,,,,,0,0,0,0,22,0,22,0,,,,,,,,,,,,,,,,,,,,,,,,,,,,,,,,,,,,,,,,,,,,,,,,,Listen to the question and speak out your answer!,1366.9975371360779,None,1366.9646819114687,1368.9974989891052,Karneval wird jedes Jahr im Februar oder im März gefeiert.,gefeiert,1368.3808044433595,None,1372.5810343265534,None,1383.5817343235017,None,1384.9983460903168,None,./data/Subject_08/Session_01/Exp_data/2020_Jul_28_1149/rec_QA_run_02_block_000_trial_022.wav,08,01,English,A2,True,False,True,False,False,True,True,True,True,True,True,True,No,2,No,No,No,No,2020_Jul_28_1149,nibs_stage_1,3.2.3,60.04094054459514,
2,0,2,0,,,,,0,0,0,0,23,0,23,0,,,,,,,,,,,,,,,,,,,,,,,,,,,,,,,,,,,,,,,,,,,,,,,,,Listen to the question and speak out your answer!,1388.032392024994,None,1387.9991858482363,1390.0319550037384,"Ich werde mich nicht entschuldigen, schließlich habe ich den Streit nicht angefangen.",entschuldigen,1389.4152654647828,None,1394.2488314151765,None,1404.6162432670594,1405.6327741146088,1406.0328171253204,None,./data/Subject_08/Session_01/Exp_data/2020_Jul_28_1149/rec_QA_run_02_block_000_trial_023.wav,08,01,English,A2,True,False,True,False,False,True,True,True,True,True,True,True,No,2,No,No,No,No,2020_Jul_28_1149,nibs_stage_1,3.2.3,60.04094054459514,
2,0,2,0,,,,,0,0,0,0,24,0,24,0,,,,,,,,,,,,,,,,,,,,,,,,,,,,,,,,,,,,,,,,,,,,,,,,,Listen to the question and speak out your answer!,1409.0672061443329,None,1409.0503472805024,1411.0664100646973,"Das sind Wörter, die vor allem junge Leute benutzen.",benutzen,1410.4497364997865,1413.5665390491486,1413.949997329712,None,1425.650501394272,None,1427.0672380924225,None,./data/Subject_08/Session_01/Exp_data/2020_Jul_28_1149/rec_QA_run_02_block_000_trial_024.wav,08,01,English,A2,True,False,True,False,False,True,True,True,True,True,True,True,No,2,No,No,No,No,2020_Jul_28_1149,nibs_stage_1,3.2.3,60.04094054459514,
2,0,2,0,,,,,0,0,0,0,,,,,,,,,,,,,,,,,,,,,,,,,,,,,,,,,,,,,,,,,,1431.0841190814972,None,,,,,,,,,,,,,,,,,,,,,,,,,,08,01,English,A2,True,False,True,False,False,True,True,True,True,True,True,True,No,2,No,No,No,No,2020_Jul_28_1149,nibs_stage_1,3.2.3,60.04094054459514,
2,0,2,0,,,,,1,0,1,0,0,0,0,0,,,,,,,,,,,,,,,,,,,,,,,,,,,,,,,,,,,,,,,,,,,,,,,,,Listen to the question and speak out your answer!,1463.3525161743164,None,1463.3200545787813,1465.3525910377502,Was bedeutet diese Abkürzung?,bedeutet,1464.735893392563,None,1467.1026853561402,None,1479.9366904735566,1480.9534029960632,1481.353439092636,None,./data/Subject_08/Session_01/Exp_data/2020_Jul_28_1149/rec_QA_run_02_block_001_trial_000.wav,08,01,English,A2,True,False,True,False,False,True,True,True,True,True,True,True,No,2,No,No,No,No,2020_Jul_28_1149,nibs_stage_1,3.2.3,60.04094054459514,
2,0,2,0,,,,,1,0,1,0,1,0,1,0,,,,,,,,,,,,,,,,,,,,,,,,,,,,,,,,,,,,,,,,,,,,,,,,,Listen to the question and speak out your answer!,1484.404294013977,None,1484.370859336853,1486.4036881923676,Die Hausfrau muss jeden Tag Lebensmittel einkaufen.,einkaufen,1485.7536763191224,1488.9704840183258,1489.3538192749024,None,1500.9544602870942,None,1502.3712091445923,None,./data/Subject_08/Session_01/Exp_data/2020_Jul_28_1149/rec_QA_run_02_block_001_trial_001.wav,08,01,English,A2,True,False,True,False,False,True,True,True,True,True,True,True,No,2,No,No,No,No,2020_Jul_28_1149,nibs_stage_1,3.2.3,60.04094054459514,
2,0,2,0,,,,,1,0,1,0,2,0,2,0,,,,,,,,,,,,,,,,,,,,,,,,,,,,,,,,,,,,,,,,,,,,,,,,,Listen to the question and speak out your answer!,1505.4386620521545,None,1505.4053199768068,1507.4381380081177,Die meisten Jugendlichen hören gerne Musik.,hören,1506.788386487961,1509.6049001216888,1510.0216182708741,None,1521.9889112949372,None,1523.4056560993195,None,./data/Subject_08/Session_01/Exp_data/2020_Jul_28_1149/rec_QA_run_02_block_001_trial_002.wav,08,01,English,A2,True,False,True,False,False,True,True,True,True,True,True,True,No,2,No,No,No,No,2020_Jul_28_1149,nibs_stage_1,3.2.3,60.04094054459514,
2,0,2,0,,,,,1,0,1,0,3,0,3,0,,,,,,,,,,,,,,,,,,,,,,,,,,,,,,,,,,,,,,,,,,,,,,,,,Listen to the question and speak out your answer!,1526.4725651741028,None,1526.43973402977,1528.4725761413574,Ich habe meine Lederschuhe mit einem Lappen geputzt.,geputzt,1527.8559054374696,None,1531.1893974781037,None,1543.0567254066468,None,1544.4734330177307,None,./data/Subject_08/Session_01/Exp_data/2020_Jul_28_1149/rec_QA_run_02_block_001_trial_003.wav,08,01,English,A2,True,False,True,False,False,True,True,True,True,True,True,True,No,2,No,No,No,No,2020_Jul_28_1149,nibs_stage_1,3.2.3,60.04094054459514,
2,0,2,0,,,,,1,0,1,0,4,0,4,0,,,,,,,,,,,,,,,,,,,,,,,,,,,,,,,,,,,,,,,,,,,,,,,,,Listen to the question and speak out your answer!,1547.507579088211,None,1547.474255847931,1549.50705909729,Die schwarze Wolken werden Regen bringen.,bringen,1548.8570055007935,None,1551.6571794986726,None,1564.0744823455811,None,1565.4911770820618,None,./data/Subject_08/Session_01/Exp_data/2020_Jul_28_1149/rec_QA_run_02_block_001_trial_004.wav,08,01,English,A2,True,False,True,False,False,True,True,True,True,True,True,True,No,2,No,No,No,No,2020_Jul_28_1149,nibs_stage_1,3.2.3,60.04094054459514,
2,0,2,0,,,,,1,0,1,0,5,0,5,0,,,,,,,,,,,,,,,,,,,,,,,,,,,,,,,,,,,,,,,,,,,,,,,,,Listen to the question and speak out your answer!,1568.5581321716309,None,1568.5253329753878,1570.558179140091,"Ich habe mir ein neues Ziel gesetzt, das ich erreichen möchte.",erreichen,1569.9080544948579,1573.6249911785126,1574.0082594394685,None,1585.1089564800263,None,1586.5257971286774,None,./data/Subject_08/Session_01/Exp_data/2020_Jul_28_1149/rec_QA_run_02_block_001_trial_005.wav,08,01,English,A2,True,False,True,False,False,True,True,True,True,True,True,True,No,2,No,No,No,No,2020_Jul_28_1149,nibs_stage_1,3.2.3,60.04094054459514,
2,0,2,0,,,,,1,0,1,0,6,0,6,0,,,,,,,,,,,,,,,,,,,,,,,,,,,,,,,,,,,,,,,,,,,,,,,,,Listen to the question and speak out your answer!,1589.5925841331482,None,1589.5597620487215,1591.5926191806793,"Ich geht auf das Postamt, um ein Paket meinem Freund zu schicken.",schicken,1590.97590341568,1594.8594281673431,1595.2429164886476,None,1606.1768852710725,None,1607.5934610366821,None,./data/Subject_08/Session_01/Exp_data/2020_Jul_28_1149/rec_QA_run_02_block_001_trial_006.wav,08,01,English,A2,True,False,True,False,False,True,True,True,True,True,True,True,No,2,No,No,No,No,2020_Jul_28_1149,nibs_stage_1,3.2.3,60.04094054459514,
2,0,2,0,,,,,1,0,1,0,7,0,7,0,,,,,,,,,,,,,,,,,,,,,,,,,,,,,,,,,,,,,,,,,,,,,,,,,Listen to the question and speak out your answer!,1610.6278250217438,None,1610.594172048569,1612.6269941329956,"Kollegen versammelt sich zusammen, um ein neues Projekt zu planen.",planen,1612.0103444099427,None,1616.4440933704377,None,1627.2111624717713,None,1628.6279020309448,None,./data/Subject_08/Session_01/Exp_data/2020_Jul_28_1149/rec_QA_run_02_block_001_trial_007.wav,08,01,English,A2,True,False,True,False,False,True,True,True,True,True,True,True,No,2,No,No,No,No,2020_Jul_28_1149,nibs_stage_1,3.2.3,60.04094054459514,
2,0,2,0,,,,,1,0,1,0,8,0,8,0,,,,,,,,,,,,,,,,,,,,,,,,,,,,,,,,,,,,,,,,,,,,,,,,,Listen to the question and speak out your answer!,1631.661502122879,None,1631.6286499977114,1633.661502122879,"Der Zug fährt gleich ab, wir müssen uns beeilen.",beeilen,1633.0448032855988,None,1636.311652326584,None,1648.2456432819367,None,1649.6623721122742,None,./data/Subject_08/Session_01/Exp_data/2020_Jul_28_1149/rec_QA_run_02_block_001_trial_008.wav,08,01,English,A2,True,False,True,False,False,True,True,True,True,True,True,True,No,2,No,No,No,No,2020_Jul_28_1149,nibs_stage_1,3.2.3,60.04094054459514,
2,0,2,0,,,,,1,0,1,0,9,0,9,0,,,,,,,,,,,,,,,,,,,,,,,,,,,,,,,,,,,,,,,,,,,,,,,,,Listen to the question and speak out your answer!,1652.696366071701,None,1652.6797463417054,1654.6959300041199,Ich male sehr gerne Ölbilder.,male,1654.0792492866517,None,1656.5460523605348,None,1669.2800594806672,1670.2967841625214,1670.6968040466309,None,./data/Subject_08/Session_01/Exp_data/2020_Jul_28_1149/rec_QA_run_02_block_001_trial_009.wav,08,01,English,A2,True,False,True,False,False,True,True,True,True,True,True,True,No,2,No,No,No,No,2020_Jul_28_1149,nibs_stage_1,3.2.3,60.04094054459514,
2,0,2,0,,,,,1,0,1,0,10,0,10,0,,,,,,,,,,,,,,,,,,,,,,,,,,,,,,,,,,,,,,,,,,,,,,,,,Listen to the question and speak out your answer!,1673.764727115631,None,1673.747529220581,1675.7637581825256,"Wenn eine Erkältung hat, kann mann niesen oder husten.",husten,1675.1470452785493,None,1678.8141263961793,None,1690.3479243755341,None,1691.7645490169525,None,./data/Subject_08/Session_01/Exp_data/2020_Jul_28_1149/rec_QA_run_02_block_001_trial_010.wav,08,01,English,A2,True,False,True,False,False,True,True,True,True,True,True,True,No,2,No,No,No,No,2020_Jul_28_1149,nibs_stage_1,3.2.3,60.04094054459514,
2,0,2,0,,,,,1,0,1,0,11,0,11,0,,,,,,,,,,,,,,,,,,,,,,,,,,,,,,,,,,,,,,,,,,,,,,,,,Listen to the question and speak out your answer!,1694.8314990997314,None,1694.798631000519,1696.8315091133118,"Mein Bruder hat uns zum Abendessen eingeladen, ich habe bereits zugesagt.",eingeladen,1696.2148484230042,None,1701.2150804042817,None,1711.415632390976,None,1712.8323590755463,None,./data/Subject_08/Session_01/Exp_data/2020_Jul_28_1149/rec_QA_run_02_block_001_trial_011.wav,08,01,English,A2,True,False,True,False,False,True,True,True,True,True,True,True,No,2,No,No,No,No,2020_Jul_28_1149,nibs_stage_1,3.2.3,60.04094054459514,
2,0,2,0,,,,,1,0,1,0,12,0,12,0,,,,,,,,,,,,,,,,,,,,,,,,,,,,,,,,,,,,,,,,,,,,,,,,,Listen to the question and speak out your answer!,1715.8664691448212,None,1715.8331230163576,1717.866012096405,Die Atmosphäre der Erde besteht aus Luft.,besteht,1717.2492693901063,1720.0327360630035,1720.416093492508,1721.432816028595,1732.4503594875337,None,1733.8667161464691,None,./data/Subject_08/Session_01/Exp_data/2020_Jul_28_1149/rec_QA_run_02_block_001_trial_012.wav,08,01,English,A2,True,False,True,False,False,True,True,True,True,True,True,True,No,2,No,No,No,No,2020_Jul_28_1149,nibs_stage_1,3.2.3,60.04094054459514,
2,0,2,0,,,,,1,0,1,0,13,0,13,0,,,,,,,,,,,,,,,,,,,,,,,,,,,,,,,,,,,,,,,,,,,,,,,,,Listen to the question and speak out your answer!,1736.9022450447083,None,1736.8843342781067,1738.900418996811,"Meine Fenster sind schmutzig, ich muss sie putzen.",putzen,1738.2838303089143,1741.134105205536,1741.5171584129334,None,1753.484534406662,None,1754.9012532234192,None,./data/Subject_08/Session_01/Exp_data/2020_Jul_28_1149/rec_QA_run_02_block_001_trial_013.wav,08,01,English,A2,True,False,True,False,False,True,True,True,True,True,True,True,No,2,No,No,No,No,2020_Jul_28_1149,nibs_stage_1,3.2.3,60.04094054459514,
2,0,2,0,,,,,1,0,1,0,14,0,14,0,,,,,,,,,,,,,,,,,,,,,,,,,,,,,,,,,,,,,,,,,,,,,,,,,Listen to the question and speak out your answer!,1757.968178987503,None,1757.935355949402,1759.9682030677795,"Der Assistent ging zurück ins Büro, um die Dokumente zu holen.",holen,1759.318161392212,1763.3017082214355,1763.6850544452668,None,1774.518992328644,1775.535747051239,1775.9357151985168,None,./data/Subject_08/Session_01/Exp_data/2020_Jul_28_1149/rec_QA_run_02_block_001_trial_014.wav,08,01,English,A2,True,False,True,False,False,True,True,True,True,True,True,True,No,2,No,No,No,No,2020_Jul_28_1149,nibs_stage_1,3.2.3,60.04094054459514,
2,0,2,0,,,,,1,0,1,0,15,0,15,0,,,,,,,,,,,,,,,,,,,,,,,,,,,,,,,,,,,,,,,,,,,,,,,,,Listen to the question and speak out your answer!,1779.019923210144,None,1778.9867271900177,1781.0194439888,Alle diese Probleme scheinen in dieselbe große Frage zu münden.,scheinen,1780.3692823886872,None,1784.8029123783112,None,1795.5702294349671,None,1796.98686003685,None,./data/Subject_08/Session_01/Exp_data/2020_Jul_28_1149/rec_QA_run_02_block_001_trial_015.wav,08,01,English,A2,True,False,True,False,False,True,True,True,True,True,True,True,No,2,No,No,No,No,2020_Jul_28_1149,nibs_stage_1,3.2.3,60.04094054459514,
2,0,2,0,,,,,1,0,1,0,16,0,16,0,,,,,,,,,,,,,,,,,,,,,,,,,,,,,,,,,,,,,,,,,,,,,,,,,Listen to the question and speak out your answer!,1800.0553710460663,None,1800.0376381397248,1802.0537581443787,"Morgen will er probieren, ob seine Theorie auch in der Praxis stimmt.",probieren,1801.4037214756013,None,1805.8039623737336,None,1816.6211894989015,None,1818.0379240512848,None,./data/Subject_08/Session_01/Exp_data/2020_Jul_28_1149/rec_QA_run_02_block_001_trial_016.wav,08,01,English,A2,True,False,True,False,False,True,True,True,True,True,True,True,No,2,No,No,No,No,2020_Jul_28_1149,nibs_stage_1,3.2.3,60.04094054459514,
2,0,2,0,,,,,1,0,1,0,17,0,17,0,,,,,,,,,,,,,,,,,,,,,,,,,,,,,,,,,,,,,,,,,,,,,,,,,Listen to the question and speak out your answer!,1821.1057221889496,None,1821.0886992931366,1823.1050782203674,Ich nehme nicht gerne Zucker zum Tee.,nehme,1822.4881533622743,1824.7383151054382,1825.121643447876,1826.1382660865784,1837.688955450058,None,1839.1057040691376,None,./data/Subject_08/Session_01/Exp_data/2020_Jul_28_1149/rec_QA_run_02_block_001_trial_017.wav,08,01,English,A2,True,False,True,False,False,True,True,True,True,True,True,True,No,2,No,No,No,No,2020_Jul_28_1149,nibs_stage_1,3.2.3,60.04094054459514,
2,0,2,0,,,,,1,0,1,0,18,0,18,0,,,,,,,,,,,,,,,,,,,,,,,,,,,,,,,,,,,,,,,,,,,,,,,,,Listen to the question and speak out your answer!,1842.1730411052704,None,1842.1564483165741,1844.1726441383362,"Wenn ich mich gestresst fühle, muss ich mich selbst daran erinnern, ruhig zu bleiben.",erinnern,1843.5558794975282,1848.2728531360626,1848.6562084198,1849.6729271411896,1858.7567683696748,None,1860.1734771728516,None,./data/Subject_08/Session_01/Exp_data/2020_Jul_28_1149/rec_QA_run_02_block_001_trial_018.wav,08,01,English,A2,True,False,True,False,False,True,True,True,True,True,True,True,No,2,No,No,No,No,2020_Jul_28_1149,nibs_stage_1,3.2.3,60.04094054459514,
2,0,2,0,,,,,1,0,1,0,19,0,19,0,,,,,,,,,,,,,,,,,,,,,,,,,,,,,,,,,,,,,,,,,,,,,,,,,Listen to the question and speak out your answer!,1863.2409541606903,None,1863.2075779914858,1865.2403280735016,Die Ärztin hat Andrea ein Rezept ausgestellt.,ausgestellt,1864.6237193584443,1867.6741690635681,1868.0572394371034,None,1879.8245593547822,None,1881.241285085678,None,./data/Subject_08/Session_01/Exp_data/2020_Jul_28_1149/rec_QA_run_02_block_001_trial_019.wav,08,01,English,A2,True,False,True,False,False,True,True,True,True,True,True,True,No,2,No,No,No,No,2020_Jul_28_1149,nibs_stage_1,3.2.3,60.04094054459514,
2,0,2,0,,,,,1,0,1,0,20,0,20,0,,,,,,,,,,,,,,,,,,,,,,,,,,,,,,,,,,,,,,,,,,,,,,,,,Listen to the question and speak out your answer!,1884.2753500938416,None,1884.2420280456545,1886.2748701572418,"Es ist zu windig, können Sie bitte das Fenster schließen.",schließen,1885.6581553459168,None,1889.3582664966584,None,1900.859103345871,None,1902.2757019996643,None,./data/Subject_08/Session_01/Exp_data/2020_Jul_28_1149/rec_QA_run_02_block_001_trial_020.wav,08,01,English,A2,True,False,True,False,False,True,True,True,True,True,True,True,No,2,No,No,No,No,2020_Jul_28_1149,nibs_stage_1,3.2.3,60.04094054459514,
2,0,2,0,,,,,1,0,1,0,21,0,21,0,,,,,,,,,,,,,,,,,,,,,,,,,,,,,,,,,,,,,,,,,,,,,,,,,Listen to the question and speak out your answer!,1905.3093860149384,None,1905.2764809608461,1907.3092482089996,Mit dem neuen System können wir Dokumente effizienter organisieren.,organisieren,1906.6926173210145,1910.8431420326233,1911.2263232707978,None,1921.8934244155885,None,1923.3101601600647,None,./data/Subject_08/Session_01/Exp_data/2020_Jul_28_1149/rec_QA_run_02_block_001_trial_021.wav,08,01,English,A2,True,False,True,False,False,True,True,True,True,True,True,True,No,2,No,No,No,No,2020_Jul_28_1149,nibs_stage_1,3.2.3,60.04094054459514,
2,0,2,0,,,,,1,0,1,0,22,0,22,0,,,,,,,,,,,,,,,,,,,,,,,,,,,,,,,,,,,,,,,,,,,,,,,,,Listen to the question and speak out your answer!,1926.343905210495,None,1926.3275691986084,1928.3437449932098,"Ich habe dieses Fach als mein Hauptfach gewählt, weil es mich interessiert.",interessiert,1927.7270604610444,None,1932.3606494903565,1933.377639055252,1942.927893304825,1943.9447121620178,1944.3446011543274,None,./data/Subject_08/Session_01/Exp_data/2020_Jul_28_1149/rec_QA_run_02_block_001_trial_022.wav,08,01,English,A2,True,False,True,False,False,True,True,True,True,True,True,True,No,2,No,No,No,No,2020_Jul_28_1149,nibs_stage_1,3.2.3,60.04094054459514,
2,0,2,0,,,,,1,0,1,0,23,0,23,0,,,,,,,,,,,,,,,,,,,,,,,,,,,,,,,,,,,,,,,,,,,,,,,,,Listen to the question and speak out your answer!,1947.412934064865,None,1947.3954741477967,1949.411535024643,Ich muss den Anzug vor der Geschäftsreise in den Koffer einpacken.,einpacken,1948.7616492748261,1952.5117101669312,1952.8950873851777,None,1963.9623123645783,None,1965.3790490627289,None,./data/Subject_08/Session_01/Exp_data/2020_Jul_28_1149/rec_QA_run_02_block_001_trial_023.wav,08,01,English,A2,True,False,True,False,False,True,True,True,True,True,True,True,No,2,No,No,No,No,2020_Jul_28_1149,nibs_stage_1,3.2.3,60.04094054459514,
2,0,2,0,,,,,1,0,1,0,24,0,24,0,,,,,,,,,,,,,,,,,,,,,,,,,,,,,,,,,,,,,,,,,,,,,,,,,Listen to the question and speak out your answer!,1968.4467461109161,None,1968.4297823429108,1970.4459681510925,"Wir müssen genau planen, was wir tun wollen.",planen,1969.829306268692,1972.512783050537,1972.896128320694,None,1985.0300842761994,None,1986.4469380378723,None,./data/Subject_08/Session_01/Exp_data/2020_Jul_28_1149/rec_QA_run_02_block_001_trial_024.wav,08,01,English,A2,True,False,True,False,False,True,True,True,True,True,True,True,No,2,No,No,No,No,2020_Jul_28_1149,nibs_stage_1,3.2.3,60.04094054459514,
