run.thisRepN,run.thisTrialN,run.thisN,run.thisIndex,QA_block.thisRepN,QA_block.thisTrialN,QA_block.thisN,QA_block.thisIndex,QA_trial.thisRepN,QA_trial.thisTrialN,QA_trial.thisN,QA_trial.thisIndex,post_trial.thisRepN,post_trial.thisTrialN,post_trial.thisN,post_trial.thisIndex,Cali_de_post_rec_text.text,Cali_de_post_rec_text.started,Cali_de_post_rec_text.stopped,Cali_de_post_rec_beep_hint.started,Cali_de_post_rec_beep_hint.stopped,Cali_de_post_rec_question_text.text,Cali_de_post_rec_question_text.started,Cali_de_post_rec_question_text.stopped,Cali_de_post_rec_beep_start.started,Cali_de_post_rec_beep_start.stopped,Cali_de_post_rec_beep_end.started,Cali_de_post_rec_beep_end.stopped,Cali_de_post_rec_break.started,Cali_de_post_rec_break.stopped,filename,the_end_text.started,the_end_text.stopped,the_end_text.text,participant,session,First language,German level,Full_screen,Instruction,Intro,Artifact,Cali_pre,Fade_in_out,Artifact_within,Resting_State,QA,Pause,Cali_post,End,Breakpoint_Cali_pre_trial,Breakpoint_Run,Breakpoint_RS_block,Breakpoint_QA_block,Breakpoint_QA_trial,Breakpoint_Cali_post_trial,date,expName,psychopyVersion,frameRate,
0,0,0,0,0,0,0,0,,,,,,,,,,,,,,,,,,,,,,,,,,,02,02,English,A2,True,False,False,False,False,False,False,False,False,False,True,True,No,No,No,No,No,No,2020_Jul_12_1234,nibs_stage_1,3.2.3,59.99447873382777,
0,0,0,0,1,0,1,0,,,,,,,,,,,,,,,,,,,,,,,,,,,02,02,English,A2,True,False,False,False,False,False,False,False,False,False,True,True,No,No,No,No,No,No,2020_Jul_12_1234,nibs_stage_1,3.2.3,59.99447873382777,
0,0,0,0,,,,,,,,,,,,,,,,,,,,,,,,,,,,,,,02,02,English,A2,True,False,False,False,False,False,False,False,False,False,True,True,No,No,No,No,No,No,2020_Jul_12_1234,nibs_stage_1,3.2.3,59.99447873382777,
1,0,1,0,0,0,0,0,,,,,,,,,,,,,,,,,,,,,,,,,,,02,02,English,A2,True,False,False,False,False,False,False,False,False,False,True,True,No,No,No,No,No,No,2020_Jul_12_1234,nibs_stage_1,3.2.3,59.99447873382777,
1,0,1,0,1,0,1,0,,,,,,,,,,,,,,,,,,,,,,,,,,,02,02,English,A2,True,False,False,False,False,False,False,False,False,False,True,True,No,No,No,No,No,No,2020_Jul_12_1234,nibs_stage_1,3.2.3,59.99447873382777,
1,0,1,0,,,,,,,,,,,,,,,,,,,,,,,,,,,,,,,02,02,English,A2,True,False,False,False,False,False,False,False,False,False,True,True,No,No,No,No,No,No,2020_Jul_12_1234,nibs_stage_1,3.2.3,59.99447873382777,
2,0,2,0,0,0,0,0,,,,,,,,,,,,,,,,,,,,,,,,,,,02,02,English,A2,True,False,False,False,False,False,False,False,False,False,True,True,No,No,No,No,No,No,2020_Jul_12_1234,nibs_stage_1,3.2.3,59.99447873382777,
2,0,2,0,1,0,1,0,,,,,,,,,,,,,,,,,,,,,,,,,,,02,02,English,A2,True,False,False,False,False,False,False,False,False,False,True,True,No,No,No,No,No,No,2020_Jul_12_1234,nibs_stage_1,3.2.3,59.99447873382777,
2,0,2,0,,,,,,,,,,,,,,,,,,,,,,,,,,,,,,,02,02,English,A2,True,False,False,False,False,False,False,False,False,False,True,True,No,No,No,No,No,No,2020_Jul_12_1234,nibs_stage_1,3.2.3,59.99447873382777,
3,0,3,0,0,0,0,0,,,,,,,,,,,,,,,,,,,,,,,,,,,02,02,English,A2,True,False,False,False,False,False,False,False,False,False,True,True,No,No,No,No,No,No,2020_Jul_12_1234,nibs_stage_1,3.2.3,59.99447873382777,
3,0,3,0,1,0,1,0,,,,,,,,,,,,,,,,,,,,,,,,,,,02,02,English,A2,True,False,False,False,False,False,False,False,False,False,True,True,No,No,No,No,No,No,2020_Jul_12_1234,nibs_stage_1,3.2.3,59.99447873382777,
3,0,3,0,,,,,,,,,,,,,,,,,,,,,,,,,,,,,,,02,02,English,A2,True,False,False,False,False,False,False,False,False,False,True,True,No,No,No,No,No,No,2020_Jul_12_1234,nibs_stage_1,3.2.3,59.99447873382777,
,,,,,,,,,,,,0,0,0,0,,67.81857895851135,None,67.79733514785767,69.80216383934021,In Österreich gibt es eine richtige Kaffeehauskultur.,69.20196294784546,86.80287098884583,70.60211074352264,None,83.38603985309601,None,84.78610277175903,86.78618693351746,./data/Subject_02/Session_02/Exp_data/2020_Jul_12_1234/rec_cali_de_post_trial_000.wav,,,,02,02,English,A2,True,False,False,False,False,False,False,False,False,False,True,True,No,No,No,No,No,No,2020_Jul_12_1234,nibs_stage_1,3.2.3,59.99447873382777,
,,,,,,,,,,,,1,0,1,0,,89.83625888824463,None,89.81864106655121,91.8197968006134,Dieser Supermarkt hat nur am Tage geöffnet.,91.21974992752075,108.8208429813385,92.61982572078705,None,105.42064774036407,None,106.82055377960205,108.8208429813385,./data/Subject_02/Session_02/Exp_data/2020_Jul_12_1234/rec_cali_de_post_trial_001.wav,,,,02,02,English,A2,True,False,False,False,False,False,False,False,False,False,True,True,No,No,No,No,No,No,2020_Jul_12_1234,nibs_stage_1,3.2.3,59.99447873382777,
,,,,,,,,,,,,2,0,2,0,,111.85413885116577,None,111.83640706539154,113.83749580383301,Howard Carter hat viele Schätze im Grab von Tutanchamun gefunden.,113.23775887489319,130.83849477767944,114.63765370845795,None,127.43828880786896,None,128.83853793144226,130.83849477767944,./data/Subject_02/Session_02/Exp_data/2020_Jul_12_1234/rec_cali_de_post_trial_002.wav,,,,02,02,English,A2,True,False,False,False,False,False,False,False,False,False,True,True,No,No,No,No,No,No,2020_Jul_12_1234,nibs_stage_1,3.2.3,59.99447873382777,
,,,,,,,,,,,,3,0,3,0,,133.87208890914917,None,133.8544501066208,135.8557538986206,Ferdinand Magellan hat als Erster die Welt umsegelt.,135.25557899475098,152.85629987716675,136.65557777881622,None,149.45610773563385,None,150.8561987876892,152.85629987716675,./data/Subject_02/Session_02/Exp_data/2020_Jul_12_1234/rec_cali_de_post_trial_003.wav,,,,02,02,English,A2,True,False,False,False,False,False,False,False,False,False,True,True,No,No,No,No,No,No,2020_Jul_12_1234,nibs_stage_1,3.2.3,59.99447873382777,
,,,,,,,,,,,,4,0,4,0,,155.8897738456726,None,155.87207806110382,157.87321090698242,Halloween wurde schon von den Kelten gefeiert.,157.273188829422,174.8740429878235,158.67324888706207,None,171.47383987903595,None,172.87400197982788,174.8740429878235,./data/Subject_02/Session_02/Exp_data/2020_Jul_12_1234/rec_cali_de_post_trial_004.wav,,,,02,02,English,A2,True,False,False,False,False,False,False,False,False,False,True,True,No,No,No,No,No,No,2020_Jul_12_1234,nibs_stage_1,3.2.3,59.99447873382777,
,,,,,,,,,,,,5,0,5,0,,177.9075529575348,None,177.88988602161407,179.89072585105896,"Leider sieht Ihr Bein gebrochen aus, aber das Knie ist okay.",179.29071187973022,196.89191484451294,180.69076669216156,None,193.491752743721,194.49212884902954,194.8917739391327,196.89191484451294,./data/Subject_02/Session_02/Exp_data/2020_Jul_12_1234/rec_cali_de_post_trial_005.wav,,,,02,02,English,A2,True,False,False,False,False,False,False,False,False,False,True,True,No,No,No,No,No,No,2020_Jul_12_1234,nibs_stage_1,3.2.3,59.99447873382777,
,,,,,,,,,,,,6,0,6,0,,199.92528986930847,None,199.9077309370041,201.90892791748047,"Ich habe Hunger, was kochst du heute?",201.30905890464783,218.90974283218384,202.70892584323883,None,215.50953686237335,None,216.90963888168335,218.90974283218384,./data/Subject_02/Session_02/Exp_data/2020_Jul_12_1234/rec_cali_de_post_trial_006.wav,,,,02,02,English,A2,True,False,False,False,False,False,False,False,False,False,True,True,No,No,No,No,No,No,2020_Jul_12_1234,nibs_stage_1,3.2.3,59.99447873382777,
,,,,,,,,,,,,7,0,7,0,,221.94308996200562,None,221.92571008205414,223.92651891708374,"Wo Rauch ist, ist auch Feuer.",223.32642197608948,240.9274308681488,224.72657477855682,225.7264688014984,237.51038587093353,None,238.91054892539978,240.91058897972107,./data/Subject_02/Session_02/Exp_data/2020_Jul_12_1234/rec_cali_de_post_trial_007.wav,,,,02,02,English,A2,True,False,False,False,False,False,False,False,False,False,True,True,No,No,No,No,No,No,2020_Jul_12_1234,nibs_stage_1,3.2.3,59.99447873382777,
,,,,,,,,,,,,8,0,8,0,,243.96082878112793,None,243.94317305088043,245.94428086280823,Lenas Hund Tobi wird immer am Abend gefüttert.,245.34423995018005,262.9450488090515,246.7442787885666,None,259.54495775699615,260.544939994812,260.9450399875641,262.9450488090515,./data/Subject_02/Session_02/Exp_data/2020_Jul_12_1234/rec_cali_de_post_trial_008.wav,,,,02,02,English,A2,True,False,False,False,False,False,False,False,False,False,True,True,No,No,No,No,No,No,2020_Jul_12_1234,nibs_stage_1,3.2.3,59.99447873382777,
,,,,,,,,,,,,9,0,9,0,,265.97861981391907,None,265.9609330892563,267.962082862854,"Ich möchte dich nicht täuschen, also werde ich dir die Wahrheit sagen.",267.3620319366455,284.96306586265564,268.7620908021927,None,281.5627578496933,None,282.9628429412842,284.96306586265564,./data/Subject_02/Session_02/Exp_data/2020_Jul_12_1234/rec_cali_de_post_trial_009.wav,,,,02,02,English,A2,True,False,False,False,False,False,False,False,False,False,True,True,No,No,No,No,No,No,2020_Jul_12_1234,nibs_stage_1,3.2.3,59.99447873382777,
,,,,,,,,,,,,,,,,,,,,,,,,,,,,,,,287.99681282043457,None," This experiment is finished. 
Thanks for your participation.",,,,,,,,,,,,,,,,,,,,,,,,,,,
