run.thisRepN,run.thisTrialN,run.thisN,run.thisIndex,artifact_trial.thisRepN,artifact_trial.thisTrialN,artifact_trial.thisN,artifact_trial.thisIndex,QA_block.thisRepN,QA_block.thisTrialN,QA_block.thisN,QA_block.thisIndex,QA_trial.thisRepN,QA_trial.thisTrialN,QA_trial.thisN,QA_trial.thisIndex,fade_in_text.text,fade_in_text.started,fade_in_text.stopped,Artifact_intro_title.started,Artifact_intro_title.stopped,Artifact_intro_text.text,Artifact_intro_text.started,Artifact_intro_text.stopped,Artifact_intro_audio.started,Artifact_intro_audio.stopped,Artifact_intro_cont.started,Artifact_intro_cont.stopped,Artifact_rec_text.text,Artifact_rec_text.started,Artifact_rec_text.stopped,Artifact_rec_beep_hint.started,Artifact_rec_beep_hint.stopped,Artifact_rec_action.started,Artifact_rec_action.stopped,Artifact_rec_beep_start.started,Artifact_rec_beep_start.stopped,Artifact_rec_recording.started,Artifact_rec_recording.stopped,Artifact_rec_beep_end.started,Artifact_rec_beep_end.stopped,Artifact_rec_break.started,Artifact_rec_break.stopped,RS_intro_title.started,RS_intro_title.stopped,RS_intro_text.text,RS_intro_text.started,RS_intro_text.stopped,RS_intro_audio.started,RS_intro_audio.stopped,RS_rec_text.text,RS_rec_text.started,RS_rec_text.stopped,Pause_cont.started,Pause_cont.stopped,QA_intro_title.started,QA_intro_title.stopped,QA_intro_text.text,QA_intro_text.started,QA_intro_text.stopped,QA_intro_audio.started,QA_intro_audio.stopped,QA_intro_cont.started,QA_intro_cont.stopped,QA_rec_text.text,QA_rec_text.started,QA_rec_text.stopped,QA_rec_beep_hint.started,QA_rec_beep_hint.stopped,QA_rec_question.sen_text,QA_rec_question.cen_text,QA_rec_question.started,QA_rec_question.stopped,QA_rec_beep_start.started,QA_rec_beep_start.stopped,QA_rec_beep_end.started,QA_rec_beep_end.stopped,QA_rec_break.started,QA_rec_break.stopped,filename,fade_out_text.text,fade_out_text.started,fade_out_text.stopped,participant,session,First language,German level,Full_screen,Instruction,Intro,Artifact,Cali_pre,Fade_in_out,Artifact_within,Resting_State,QA,Pause,Cali_post,End,Breakpoint_Cali_pre_trial,Breakpoint_Run,Breakpoint_RS_block,Breakpoint_QA_block,Breakpoint_QA_trial,Breakpoint_Cali_post_trial,date,expName,psychopyVersion,frameRate,
2,0,2,0,0,0,0,0,,,,,,,,,Please remain seated until further instruction via the earphone.,59.21338391304016,None,61.246795892715454,None,"  - Task: Artifacts collection   
  - Please follow audio instruction              
",61.246795892715454,None,61.230259251594546,None,87.6147530078888,None,,89.6483519077301,None,89.63162834644318,91.6318039894104,91.03165729045868,None,94.43183023929596,None,95.83191521167755,105.83243489265442,106.2324581861496,None,107.63252091407776,108.63259291648865,,,,,,,,,,,,,,,,,,,,,,,,,,,,,,,,,,,,,,,,,02,02,English,A2,True,False,True,False,False,True,True,True,True,True,True,True,No,2,No,No,No,No,2020_Jul_12_1133,nibs_stage_1,3.2.3,59.920854203156125,
2,0,2,0,1,0,1,0,,,,,,,,,,,,,,,,,,,,,,111.64997100830078,None,111.64951212406159,113.64937782287598,113.03280217647553,None,116.43299539089203,None,117.83339126110077,127.83385300636292,128.23385531902312,129.2338478565216,129.6338608264923,130.63394284248352,,,,,,,,,,,,,,,,,,,,,,,,,,,,,,,,,,,,,,,,,02,02,English,A2,True,False,True,False,False,True,True,True,True,True,True,True,No,2,No,No,No,No,2020_Jul_12_1133,nibs_stage_1,3.2.3,59.920854203156125,
2,0,2,0,2,0,2,0,,,,,,,,,,,,,,,,,,,,,,133.66775178909302,133.66775178909302,133.65084822177886,135.65086197853088,135.05080420970916,None,138.45091421604155,None,139.85106832981108,149.85172486305237,150.2516492128372,151.25162196159363,151.6517288684845,152.6517210006714,,,,,,,,,,,,,,,,,,,,,,,,,,,,,,,,,,,,,,,,,02,02,English,A2,True,False,True,False,False,True,True,True,True,True,True,True,No,2,No,No,No,No,2020_Jul_12_1133,nibs_stage_1,3.2.3,59.920854203156125,
2,0,2,0,3,0,3,0,,,,,,,,,,,,,,,,,,,,,,155.68569898605347,None,155.6686962366104,157.66871190071106,157.0519982099533,None,160.45235021114348,None,161.8522272825241,171.8528618812561,172.25310428142546,173.25277400016785,173.65279984474182,174.65287399291992,,,,,,,,,,,,,,,,,,,,,,,,,,,,,,,,,,,,,,,,,02,02,English,A2,True,False,True,False,False,True,True,True,True,True,True,True,No,2,No,No,No,No,2020_Jul_12_1133,nibs_stage_1,3.2.3,59.920854203156125,
2,0,2,0,4,0,4,0,,,,,,,,,,,,,,,,,,,,,,177.70301795005798,None,177.68662436008452,179.68647289276123,179.06978828907012,None,182.46996219158171,None,183.87001020908355,193.8704948425293,194.2705963373184,None,195.67073488235474,196.6706759929657,,,,,,,,,,,,,,,,,,,,,,,,,,,,,,,,,,,,,,,,,02,02,English,A2,True,False,True,False,False,True,True,True,True,True,True,True,No,2,No,No,No,No,2020_Jul_12_1133,nibs_stage_1,3.2.3,59.920854203156125,
2,0,2,0,5,0,5,0,,,,,,,,,,,,,,,,,,,,,,199.7207808494568,None,199.70426924228667,201.70422983169556,201.08750731945037,None,204.48776323795317,None,205.887722325325,215.88831496238708,216.2883673429489,None,217.68832898139954,218.68848991394043,,,,,,,,,,,,,,,,,,,,,,,,,,,,,,,,,,,,,,,,,02,02,English,A2,True,False,True,False,False,True,True,True,True,True,True,True,No,2,No,No,No,No,2020_Jul_12_1133,nibs_stage_1,3.2.3,59.920854203156125,
2,0,2,0,6,0,6,0,,,,,,,,,,,,,,,,,,,,,,221.73862195014954,None,221.72204716205596,223.72209191322327,223.105402302742,None,226.5054744005203,None,227.9056072950363,237.90628385543823,238.30618340969085,239.30630898475647,239.70624089241028,240.7063708305359,,,,,,,,,,,,,,,,,,,,,,,,,,,,,,,,,,,,,,,,,02,02,English,A2,True,False,True,False,False,True,True,True,True,True,True,True,No,2,No,No,No,No,2020_Jul_12_1133,nibs_stage_1,3.2.3,59.920854203156125,
2,0,2,0,7,0,7,0,,,,,,,,,,,,,,,,,,,,,,243.7564070224762,None,243.74016625881194,245.73985600471497,245.12315518856047,248.123281955719,248.52329618930816,None,249.9233852148056,259.92392802238464,260.3239422559738,261.3239188194275,261.7240059375763,262.7240779399872,,,,,,,,,,,,,,,,,,,,,,,,,,,,,,,,,,,,,,,,,02,02,English,A2,True,False,True,False,False,True,True,True,True,True,True,True,No,2,No,No,No,No,2020_Jul_12_1133,nibs_stage_1,3.2.3,59.920854203156125,
2,0,2,0,8,0,8,0,,,,,,,,,,,,,,,,,,,,,,265.77426290512085,None,265.75765736103057,267.7576539516449,267.1410902261734,270.1410298347473,270.5410493135452,None,271.94120223522185,281.9417669773102,282.3419721841812,283.3417909145355,283.7418248653412,284.74186396598816,,,,,,,,,,,,,,,,,,,,,,,,,,,,,,,,,,,,,,,,,02,02,English,A2,True,False,True,False,False,True,True,True,True,True,True,True,No,2,No,No,No,No,2020_Jul_12_1133,nibs_stage_1,3.2.3,59.920854203156125,
2,0,2,0,9,0,9,0,,,,,,,,,,,,,,,,,,,,,,287.79278898239136,None,287.77537734508513,289.77561688423157,289.15875418186187,292.1589159965515,292.55895240306853,None,293.9588993310928,303.9602518081665,304.3593302488327,None,305.7594859600067,306.75960397720337,,,,,,,,,,,,,,,,,,,,,,,,,,,,,,,,,,,,,,,,,02,02,English,A2,True,False,True,False,False,True,True,True,True,True,True,True,No,2,No,No,No,No,2020_Jul_12_1133,nibs_stage_1,3.2.3,59.920854203156125,
2,0,2,0,10,0,10,0,,,,,,,,,,,,,,,,,,,,,,309.8097310066223,None,309.7930403470993,311.79294896125793,311.1763354063034,None,314.5767462968826,None,315.9775431871414,325.9774649143219,326.3773463487625,327.3775088787079,327.7775299549103,328.7774817943573,,,,,,,,,,,,,,,,,,,,,,,,,,,,,,,,,,,,,,,,,02,02,English,A2,True,False,True,False,False,True,True,True,True,True,True,True,No,2,No,No,No,No,2020_Jul_12_1133,nibs_stage_1,3.2.3,59.920854203156125,
2,0,2,0,11,0,11,0,,,,,,,,,,,,,,,,,,,,,,331.8275029659271,None,331.81131823062896,333.8113329410553,333.21101624965667,None,336.5949073553085,337.5949399471283,337.9949432134628,347.99488282203674,348.39490230083464,349.3949558734894,349.7949728965759,350.7949550151825,,,,,,,,,,,,,,,,,,,,,,,,,,,,,,,,,,,,,,,,,02,02,English,A2,True,False,True,False,False,True,True,True,True,True,True,True,No,2,No,No,No,No,2020_Jul_12_1133,nibs_stage_1,3.2.3,59.920854203156125,
2,0,2,0,12,0,12,0,,,,,,,,,,,,,,,,,,,,,,353.8452298641205,None,353.8292141675949,355.8286428451538,355.2119253396988,358.21208691596985,358.61269719600676,None,360.01218421459197,370.0130069255829,370.4130523920059,None,371.81311202049255,372.8131740093231,,,,,,,,,,,,,,,,,,,,,,,,,,,,,,,,,,,,,,,,,02,02,English,A2,True,False,True,False,False,True,True,True,True,True,True,True,No,2,No,No,No,No,2020_Jul_12_1133,nibs_stage_1,3.2.3,59.920854203156125,
2,0,2,0,13,0,13,0,,,,,,,,,,,,,,,,,,,,,,375.86291790008545,None,375.84702332019805,377.84645795822144,377.2298591852188,None,380.6299303293228,381.63021183013916,382.03024418354033,392.0639138221741,392.447324347496,None,393.86395502090454,394.8973808288574,,,,,,,,,,,,,,,,,,,,,,,,,,,,,,,,,,,,,,,,,02,02,English,A2,True,False,True,False,False,True,True,True,True,True,True,True,No,2,No,No,No,No,2020_Jul_12_1133,nibs_stage_1,3.2.3,59.920854203156125,
2,0,2,0,14,0,14,0,,,,,,,,,,,,,,,,,,,,,,397.8978669643402,None,397.8809881925583,399.89755487442017,399.2810612440109,None,402.681042265892,None,404.0812562227249,414.0982918739319,414.4816342115402,None,415.8983860015869,416.93178486824036,,,,,,,,,,,,,,,,,,,,,,,,,,,,,,,,,,,,,,,,,02,02,English,A2,True,False,True,False,False,True,True,True,True,True,True,True,No,2,No,No,No,No,2020_Jul_12_1133,nibs_stage_1,3.2.3,59.920854203156125,
2,0,2,0,,,,,0,0,0,0,0,0,0,0,,,,,,,,,,,,,,,,,,,,,,,,,,,,627.4095039367676,None," - Task: Keep seated and relaxed with either      
             opening or closing eyes                  
 - Beep sound with decreasing pitch: Block finish 
",627.4095039367676,None,627.3927046298982,None,"Please keep relaxed and open your eyes.
Note: Blinking is allowed.",650.4621629714966,830.5030369758606,833.9031980037689,None,847.9375789165497,None," - Task: Listen to the question& Speak out answer 
 - Melodious beep sound: Trial start              
 - Silent sound (blank): censored word            
 - Beep sound with increasing pitch: Rec. start   
 - Beep sound with decreasing pitch: Rec. finish  
",847.9375789165497,None,847.9208520889283,None,887.3559579849243,None,Listen to the question and speak out your answer!,890.4395408630371,None,890.4229419708253,892.439535856247,Wir haben einige sehr schöne Orte besucht.,besucht,891.8228543519974,None,894.8896623373032,None,907.0236433267594,None,908.4402918815613,None,./data/Subject_02/Session_02/Exp_data/2020_Jul_12_1133/rec_QA_run_02_block_000_trial_000.wav,,,,02,02,English,A2,True,False,True,False,False,True,True,True,True,True,True,True,No,2,No,No,No,No,2020_Jul_12_1133,nibs_stage_1,3.2.3,59.920854203156125,
2,0,2,0,,,,,0,0,0,0,1,0,1,0,,,,,,,,,,,,,,,,,,,,,,,,,,,,,,,,,,,,,,,,,,,,,,,,,Listen to the question and speak out your answer!,911.5071978569031,None,911.4739655494691,913.5072898864746,Das laute Auto meines Nachbarn stört mich jeden Tag.,stört,912.8906172037125,None,916.7574773550034,None,928.091379237175,None,929.5081279277802,None,./data/Subject_02/Session_02/Exp_data/2020_Jul_12_1133/rec_QA_run_02_block_000_trial_001.wav,,,,02,02,English,A2,True,False,True,False,False,True,True,True,True,True,True,True,No,2,No,No,No,No,2020_Jul_12_1133,nibs_stage_1,3.2.3,59.920854203156125,
2,0,2,0,,,,,0,0,0,0,2,0,2,0,,,,,,,,,,,,,,,,,,,,,,,,,,,,,,,,,,,,,,,,,,,,,,,,,Listen to the question and speak out your answer!,932.5255868434906,None,932.508378648758,934.5250298976898,Biologie gehört zu den Natur-Wissenschaften.,gehört,933.9083402872086,None,937.2419403314591,938.2586388587952,949.0925582170487,950.1092739105225,950.5094068050385,None,./data/Subject_02/Session_02/Exp_data/2020_Jul_12_1133/rec_QA_run_02_block_000_trial_002.wav,,,,02,02,English,A2,True,False,True,False,False,True,True,True,True,True,True,True,No,2,No,No,No,No,2020_Jul_12_1133,nibs_stage_1,3.2.3,59.920854203156125,
2,0,2,0,,,,,0,0,0,0,3,0,3,0,,,,,,,,,,,,,,,,,,,,,,,,,,,,,,,,,,,,,,,,,,,,,,,,,Listen to the question and speak out your answer!,953.5763490200043,None,953.5594930410385,955.5762228965759,Leo ist schon zur Arbeit gegangen.,gegangen,954.9594112157822,None,957.4596234083176,None,970.1602943658829,None,971.5770139694214,None,./data/Subject_02/Session_02/Exp_data/2020_Jul_12_1133/rec_QA_run_02_block_000_trial_003.wav,,,,02,02,English,A2,True,False,True,False,False,True,True,True,True,True,True,True,No,2,No,No,No,No,2020_Jul_12_1133,nibs_stage_1,3.2.3,59.920854203156125,
2,0,2,0,,,,,0,0,0,0,4,0,4,0,,,,,,,,,,,,,,,,,,,,,,,,,,,,,,,,,,,,,,,,,,,,,,,,,Listen to the question and speak out your answer!,974.6270508766174,None,974.6106525897981,976.6272900104523,"Die USA gewannen den Zweiten Weltkrieg, nachdem sie mehrere Jahre lang gekämpft hatten.",gewannen,976.0105853796006,None,981.8442223787308,None,991.2113283395768,None,992.6280407905579,None,./data/Subject_02/Session_02/Exp_data/2020_Jul_12_1133/rec_QA_run_02_block_000_trial_004.wav,,,,02,02,English,A2,True,False,True,False,False,True,True,True,True,True,True,True,No,2,No,No,No,No,2020_Jul_12_1133,nibs_stage_1,3.2.3,59.920854203156125,
2,0,2,0,,,,,0,0,0,0,5,0,5,0,,,,,,,,,,,,,,,,,,,,,,,,,,,,,,,,,,,,,,,,,,,,,,,,,Listen to the question and speak out your answer!,995.6783268451691,None,995.6616205215455,997.6782867908478,Das Staatstheater ist s ist zu alt und wird dieses Jahr renoviert.,renoviert,997.0616012334824,1001.1118788719177,1001.4619541883469,None,1012.2290433168412,1013.2457549571991,1013.6457619667053,None,./data/Subject_02/Session_02/Exp_data/2020_Jul_12_1133/rec_QA_run_02_block_000_trial_005.wav,,,,02,02,English,A2,True,False,True,False,False,True,True,True,True,True,True,True,No,2,No,No,No,No,2020_Jul_12_1133,nibs_stage_1,3.2.3,59.920854203156125,
2,0,2,0,,,,,0,0,0,0,6,0,6,0,,,,,,,,,,,,,,,,,,,,,,,,,,,,,,,,,,,,,,,,,,,,,,,,,Listen to the question and speak out your answer!,1016.7131638526917,None,1016.6960301160813,1018.7127048969269,Wir freuen uns von Herzen über seine ausgezeichnete Leistung.,freuen,1018.0959842920304,None,1022.3962221860886,1023.4129338264465,1033.263471198082,1034.280170917511,1034.6801970005035,None,./data/Subject_02/Session_02/Exp_data/2020_Jul_12_1133/rec_QA_run_02_block_000_trial_006.wav,,,,02,02,English,A2,True,False,True,False,False,True,True,True,True,True,True,True,No,2,No,No,No,No,2020_Jul_12_1133,nibs_stage_1,3.2.3,59.920854203156125,
2,0,2,0,,,,,0,0,0,0,7,0,7,0,,,,,,,,,,,,,,,,,,,,,,,,,,,,,,,,,,,,,,,,,,,,,,,,,Listen to the question and speak out your answer!,1037.7308847904205,None,1037.7137867450715,1039.7304348945618,Er ist durch die ganze Welt gereist.,gereist,1039.113743376732,None,1041.580537390709,None,1054.3145592927933,1055.331316947937,1055.731274843216,None,./data/Subject_02/Session_02/Exp_data/2020_Jul_12_1133/rec_QA_run_02_block_000_trial_007.wav,,,,02,02,English,A2,True,False,True,False,False,True,True,True,True,True,True,True,No,2,No,No,No,No,2020_Jul_12_1133,nibs_stage_1,3.2.3,59.920854203156125,
2,0,2,0,,,,,0,0,0,0,8,0,8,0,,,,,,,,,,,,,,,,,,,,,,,,,,,,,,,,,,,,,,,,,,,,,,,,,Listen to the question and speak out your answer!,1058.7987129688263,None,1058.7648595809937,1060.7981967926025,"Ich habe eine verletzte Hand, kannst du bitte die Knöpfe meiner Jacke öffnen?",öffnen,1060.1814993143082,None,1064.8151663064957,1065.8317790031433,1075.3822801828385,None,1076.7990319728851,None,./data/Subject_02/Session_02/Exp_data/2020_Jul_12_1133/rec_QA_run_02_block_000_trial_008.wav,,,,02,02,English,A2,True,False,True,False,False,True,True,True,True,True,True,True,No,2,No,No,No,No,2020_Jul_12_1133,nibs_stage_1,3.2.3,59.920854203156125,
2,0,2,0,,,,,0,0,0,0,9,0,9,0,,,,,,,,,,,,,,,,,,,,,,,,,,,,,,,,,,,,,,,,,,,,,,,,,Listen to the question and speak out your answer!,1079.8341128826141,None,1079.8158831357957,1081.8325979709625,Die friedlichen Pandas kommen aus China.,kommen,1081.2159732103348,1083.7326209545135,1084.116052222252,1085.1327838897705,1096.4167073488236,None,1097.8334329128265,None,./data/Subject_02/Session_02/Exp_data/2020_Jul_12_1133/rec_QA_run_02_block_000_trial_009.wav,,,,02,02,English,A2,True,False,True,False,False,True,True,True,True,True,True,True,No,2,No,No,No,No,2020_Jul_12_1133,nibs_stage_1,3.2.3,59.920854203156125,
2,0,2,0,,,,,0,0,0,0,10,0,10,0,,,,,,,,,,,,,,,,,,,,,,,,,,,,,,,,,,,,,,,,,,,,,,,,,Listen to the question and speak out your answer!,1100.8511419296265,None,1100.8336955547334,1102.8502659797668,Ein Regenbogen besteht aus vielen Farben.,besteht,1102.2336793661118,None,1105.3338142156601,None,1117.4344373464585,None,1118.8511719703674,None,./data/Subject_02/Session_02/Exp_data/2020_Jul_12_1133/rec_QA_run_02_block_000_trial_010.wav,,,,02,02,English,A2,True,False,True,False,False,True,True,True,True,True,True,True,No,2,No,No,No,No,2020_Jul_12_1133,nibs_stage_1,3.2.3,59.920854203156125,
2,0,2,0,,,,,0,0,0,0,11,0,11,0,,,,,,,,,,,,,,,,,,,,,,,,,,,,,,,,,,,,,,,,,,,,,,,,,Listen to the question and speak out your answer!,1121.9180228710175,None,1121.8847767353059,1123.9180059432983,Diese Grafik hat die Ergebnisse deutlich dargestellt.,dargestellt,1123.3014052629471,None,1126.9015982866288,None,1138.485440325737,None,1139.9022648334503,None,./data/Subject_02/Session_02/Exp_data/2020_Jul_12_1133/rec_QA_run_02_block_000_trial_011.wav,,,,02,02,English,A2,True,False,True,False,False,True,True,True,True,True,True,True,No,2,No,No,No,No,2020_Jul_12_1133,nibs_stage_1,3.2.3,59.920854203156125,
2,0,2,0,,,,,0,0,0,0,12,0,12,0,,,,,,,,,,,,,,,,,,,,,,,,,,,,,,,,,,,,,,,,,,,,,,,,,Listen to the question and speak out your answer!,1142.9692368507385,None,1142.9358467102052,1144.969191789627,"Es hat die ganze Woche geregnet, aber heute scheint endlich die Sonne. ",scheint,1144.3524842977524,1148.5026988983154,1148.8860634088517,1149.9027647972107,1159.5533593416214,None,1160.9700019359589,None,./data/Subject_02/Session_02/Exp_data/2020_Jul_12_1133/rec_QA_run_02_block_000_trial_012.wav,,,,02,02,English,A2,True,False,True,False,False,True,True,True,True,True,True,True,No,2,No,No,No,No,2020_Jul_12_1133,nibs_stage_1,3.2.3,59.920854203156125,
2,0,2,0,,,,,0,0,0,0,13,0,13,0,,,,,,,,,,,,,,,,,,,,,,,,,,,,,,,,,,,,,,,,,,,,,,,,,Listen to the question and speak out your answer!,1164.0037438869476,None,1163.9869370222093,1166.0035979747772,Die Blumen in meinem Garten riechen gut.,riechen,1165.3869002580643,None,1168.2537213087082,None,1180.5876842260361,None,1182.004418849945,None,./data/Subject_02/Session_02/Exp_data/2020_Jul_12_1133/rec_QA_run_02_block_000_trial_013.wav,,,,02,02,English,A2,True,False,True,False,False,True,True,True,True,True,True,True,No,2,No,No,No,No,2020_Jul_12_1133,nibs_stage_1,3.2.3,59.920854203156125,
2,0,2,0,,,,,0,0,0,0,14,0,14,0,,,,,,,,,,,,,,,,,,,,,,,,,,,,,,,,,,,,,,,,,,,,,,,,,Listen to the question and speak out your answer!,1185.0380499362946,None,1185.004678630829,1187.0380058288574,Er hat meine Sympathie gewonnen.,gewonnen,1186.4213963270188,1188.3047358989716,1188.6881922006608,None,1201.6221082925797,None,1203.0388159751892,None,./data/Subject_02/Session_02/Exp_data/2020_Jul_12_1133/rec_QA_run_02_block_000_trial_014.wav,,,,02,02,English,A2,True,False,True,False,False,True,True,True,True,True,True,True,No,2,No,No,No,No,2020_Jul_12_1133,nibs_stage_1,3.2.3,59.920854203156125,
2,0,2,0,,,,,0,0,0,0,15,0,15,0,,,,,,,,,,,,,,,,,,,,,,,,,,,,,,,,,,,,,,,,,,,,,,,,,Listen to the question and speak out your answer!,1206.0565350055695,None,1206.039087677002,1208.055743932724,Die Gäste gratulieren dem jungen Paar herzlich zur Hochzeit.,gratulieren,1207.4390812635422,1211.2225949764252,1211.6059673547745,None,1222.6397822618485,None,1224.0565810203552,None,./data/Subject_02/Session_02/Exp_data/2020_Jul_12_1133/rec_QA_run_02_block_000_trial_015.wav,,,,02,02,English,A2,True,False,True,False,False,True,True,True,True,True,True,True,No,2,No,No,No,No,2020_Jul_12_1133,nibs_stage_1,3.2.3,59.920854203156125,
2,0,2,0,,,,,0,0,0,0,16,0,16,0,,,,,,,,,,,,,,,,,,,,,,,,,,,,,,,,,,,,,,,,,,,,,,,,,Listen to the question and speak out your answer!,1227.1237399578094,None,1227.1068360567094,1229.123515844345,Ich kann nicht mit dem Auto fahren.,fahren,1228.5069182634354,1230.5235919952393,1230.9069631814957,None,1243.7077232122422,None,1245.1243538856506,None,./data/Subject_02/Session_02/Exp_data/2020_Jul_12_1133/rec_QA_run_02_block_000_trial_016.wav,,,,02,02,English,A2,True,False,True,False,False,True,True,True,True,True,True,True,No,2,No,No,No,No,2020_Jul_12_1133,nibs_stage_1,3.2.3,59.920854203156125,
2,0,2,0,,,,,0,0,0,0,17,0,17,0,,,,,,,,,,,,,,,,,,,,,,,,,,,,,,,,,,,,,,,,,,,,,,,,,Listen to the question and speak out your answer!,1248.1414568424225,None,1248.1246136665345,1250.1413009166718,"Es gibt viele Vorteile, wenn man die öffentlichen Verkehrsmittel benutzt.",benutzt,1249.5245083093644,None,1254.1581702947617,None,1264.7254012346268,1265.7421197891235,1266.1421508789062,None,./data/Subject_02/Session_02/Exp_data/2020_Jul_12_1133/rec_QA_run_02_block_000_trial_017.wav,,,,02,02,English,A2,True,False,True,False,False,True,True,True,True,True,True,True,No,2,No,No,No,No,2020_Jul_12_1133,nibs_stage_1,3.2.3,59.920854203156125,
2,0,2,0,,,,,0,0,0,0,18,0,18,0,,,,,,,,,,,,,,,,,,,,,,,,,,,,,,,,,,,,,,,,,,,,,,,,,Listen to the question and speak out your answer!,1269.2090590000153,None,1269.1758417129518,1271.209077835083,"Bitte zieh deinen Mantel an, es ist kalt draußen.",zieh,1270.5923763036728,1273.709203004837,1274.0925672769547,None,1285.7932692289353,None,1287.2099390029907,None,./data/Subject_02/Session_02/Exp_data/2020_Jul_12_1133/rec_QA_run_02_block_000_trial_018.wav,,,,02,02,English,A2,True,False,True,False,False,True,True,True,True,True,True,True,No,2,No,No,No,No,2020_Jul_12_1133,nibs_stage_1,3.2.3,59.920854203156125,
2,0,2,0,,,,,0,0,0,0,19,0,19,0,,,,,,,,,,,,,,,,,,,,,,,,,,,,,,,,,,,,,,,,,,,,,,,,,Listen to the question and speak out your answer!,1290.244052886963,None,1290.210186624527,1292.2435629367828,"Weil er so hungrig war, hat Franz einmal einen Apfel gestohlen.",gestohlen,1291.5933993577958,1295.3770170211792,1295.7937942266465,1296.810418844223,1306.794278216362,1307.811049938202,1308.2111449241638,None,./data/Subject_02/Session_02/Exp_data/2020_Jul_12_1133/rec_QA_run_02_block_000_trial_019.wav,,,,02,02,English,A2,True,False,True,False,False,True,True,True,True,True,True,True,No,2,No,No,No,No,2020_Jul_12_1133,nibs_stage_1,3.2.3,59.920854203156125,
2,0,2,0,,,,,0,0,0,0,20,0,20,0,,,,,,,,,,,,,,,,,,,,,,,,,,,,,,,,,,,,,,,,,,,,,,,,,Listen to the question and speak out your answer!,1311.2784597873688,None,1311.2446197509767,1313.2779519557953,Die Abgase der Benzinmotoren werden die Luft verschmutzen.,verschmutzen,1312.6611812829972,None,1316.6281533956528,1317.644859790802,1327.8620582342148,None,1329.278795003891,None,./data/Subject_02/Session_02/Exp_data/2020_Jul_12_1133/rec_QA_run_02_block_000_trial_020.wav,,,,02,02,English,A2,True,False,True,False,False,True,True,True,True,True,True,True,No,2,No,No,No,No,2020_Jul_12_1133,nibs_stage_1,3.2.3,59.920854203156125,
2,0,2,0,,,,,0,0,0,0,21,0,21,0,,,,,,,,,,,,,,,,,,,,,,,,,,,,,,,,,,,,,,,,,,,,,,,,,Listen to the question and speak out your answer!,1332.295730829239,None,1332.2624302625657,1334.2957129478455,Sie schulden mir noch Geld von gestern.,schulden,1333.645815205574,1335.9625298976898,1336.3791573762894,None,1348.8464823484421,None,1350.2632429599762,None,./data/Subject_02/Session_02/Exp_data/2020_Jul_12_1133/rec_QA_run_02_block_000_trial_021.wav,,,,02,02,English,A2,True,False,True,False,False,True,True,True,True,True,True,True,No,2,No,No,No,No,2020_Jul_12_1133,nibs_stage_1,3.2.3,59.920854203156125,
2,0,2,0,,,,,0,0,0,0,22,0,22,0,,,,,,,,,,,,,,,,,,,,,,,,,,,,,,,,,,,,,,,,,,,,,,,,,Listen to the question and speak out your answer!,1353.3139638900757,None,1353.2968226909638,1355.3135027885437,Die Näherin hat ein Kleid für den Abschlussball genäht.,genäht,1354.69677836895,1357.8139379024506,1358.1969803094864,None,1369.8976042985917,None,1371.314369916916,None,./data/Subject_02/Session_02/Exp_data/2020_Jul_12_1133/rec_QA_run_02_block_000_trial_022.wav,,,,02,02,English,A2,True,False,True,False,False,True,True,True,True,True,True,True,No,2,No,No,No,No,2020_Jul_12_1133,nibs_stage_1,3.2.3,59.920854203156125,
2,0,2,0,,,,,0,0,0,0,23,0,23,0,,,,,,,,,,,,,,,,,,,,,,,,,,,,,,,,,,,,,,,,,,,,,,,,,Listen to the question and speak out your answer!,1374.3813319206238,None,1374.3479327201844,1376.3813059329987,Es besteht eine starke Verbindung zwischen Musik und Kunst.,besteht,1375.7646022558213,1379.3480088710785,1379.7314503908158,None,1390.9653852701188,None,1392.3821189403534,None,./data/Subject_02/Session_02/Exp_data/2020_Jul_12_1133/rec_QA_run_02_block_000_trial_023.wav,,,,02,02,English,A2,True,False,True,False,False,True,True,True,True,True,True,True,No,2,No,No,No,No,2020_Jul_12_1133,nibs_stage_1,3.2.3,59.920854203156125,
2,0,2,0,,,,,0,0,0,0,24,0,24,0,,,,,,,,,,,,,,,,,,,,,,,,,,,,,,,,,,,,,,,,,,,,,,,,,Listen to the question and speak out your answer!,1395.4156229496002,None,1395.38241853714,1397.4157090187073,"Da er sehr reich ist, hat der Club ihn als Mitglied aufgenommen. ",aufgenommen,1396.7990291833878,None,1400.8992284059525,None,1411.9998093366623,None,1413.4165618419647,None,./data/Subject_02/Session_02/Exp_data/2020_Jul_12_1133/rec_QA_run_02_block_000_trial_024.wav,,,,02,02,English,A2,True,False,True,False,False,True,True,True,True,True,True,True,No,2,No,No,No,No,2020_Jul_12_1133,nibs_stage_1,3.2.3,59.920854203156125,
2,0,2,0,,,,,0,0,0,0,,,,,,,,,,,,,,,,,,,,,,,,,,,,,,,,,,,,,,,,,,1417.4334268569946,None,,,,,,,,,,,,,,,,,,,,,,,,,,,,,02,02,English,A2,True,False,True,False,False,True,True,True,True,True,True,True,No,2,No,No,No,No,2020_Jul_12_1133,nibs_stage_1,3.2.3,59.920854203156125,
2,0,2,0,,,,,1,0,1,0,0,0,0,0,,,,,,,,,,,,,,,,,,,,,,,,,,,,,,,,,,,,,,,,,,,,,,,,,Listen to the question and speak out your answer!,1431.53648686409,None,1431.517658996582,1433.5344829559326,"Ich benutze mein Handy, um Textnachrichten zu senden.",senden,1432.917667222023,None,1436.8177793741227,None,1448.1183992147446,None,1449.5351119041443,None,./data/Subject_02/Session_02/Exp_data/2020_Jul_12_1133/rec_QA_run_02_block_001_trial_000.wav,,,,02,02,English,A2,True,False,True,False,False,True,True,True,True,True,True,True,No,2,No,No,No,No,2020_Jul_12_1133,nibs_stage_1,3.2.3,59.920854203156125,
2,0,2,0,,,,,1,0,1,0,1,0,1,0,,,,,,,,,,,,,,,,,,,,,,,,,,,,,,,,,,,,,,,,,,,,,,,,,Listen to the question and speak out your answer!,1452.6025528907776,None,1452.5688175201417,1454.6020498275757,Im Sommer gehen Alice und Tom gerne in die Bäder schwimmen.,schwimmen,1453.9520073652268,None,1457.7522493124009,None,1469.1528082609177,None,1470.5696449279785,None,./data/Subject_02/Session_02/Exp_data/2020_Jul_12_1133/rec_QA_run_02_block_001_trial_001.wav,,,,02,02,English,A2,True,False,True,False,False,True,True,True,True,True,True,True,No,2,No,No,No,No,2020_Jul_12_1133,nibs_stage_1,3.2.3,59.920854203156125,
2,0,2,0,,,,,1,0,1,0,2,0,2,0,,,,,,,,,,,,,,,,,,,,,,,,,,,,,,,,,,,,,,,,,,,,,,,,,Listen to the question and speak out your answer!,1473.6367659568787,None,1473.603147649765,1475.636468887329,Linda trinkt lieber eine heiße Schokolade.,trinkt,1474.9864261865616,None,1478.1531823396683,None,1490.1873443841935,1491.2039728164673,1491.6039898395538,None,./data/Subject_02/Session_02/Exp_data/2020_Jul_12_1133/rec_QA_run_02_block_001_trial_002.wav,,,,02,02,English,A2,True,False,True,False,False,True,True,True,True,True,True,True,No,2,No,No,No,No,2020_Jul_12_1133,nibs_stage_1,3.2.3,59.920854203156125,
2,0,2,0,,,,,1,0,1,0,3,0,3,0,,,,,,,,,,,,,,,,,,,,,,,,,,,,,,,,,,,,,,,,,,,,,,,,,Listen to the question and speak out your answer!,1494.6719918251038,None,1494.6375645637513,1496.6709198951721,"Es ist vorstellbar, dass er diese schwierige Prüfung nicht bestehen kann. ",bestehen,1496.0208733797074,1500.1710867881775,1500.5877843618393,1501.6045110225677,1511.221681189537,None,1512.6384479999542,None,./data/Subject_02/Session_02/Exp_data/2020_Jul_12_1133/rec_QA_run_02_block_001_trial_003.wav,,,,02,02,English,A2,True,False,True,False,False,True,True,True,True,True,True,True,No,2,No,No,No,No,2020_Jul_12_1133,nibs_stage_1,3.2.3,59.920854203156125,
2,0,2,0,,,,,1,0,1,0,4,0,4,0,,,,,,,,,,,,,,,,,,,,,,,,,,,,,,,,,,,,,,,,,,,,,,,,,Listen to the question and speak out your answer!,1515.70672082901,None,1515.6886849164964,1517.7053689956665,"Mein Ziel ist, in der Prüfung gute Ergebnisse zu bekommen.",bekommen,1517.088647198677,1520.7055668830872,1521.088874411583,None,1532.2728033781052,None,1533.6895518302917,None,./data/Subject_02/Session_02/Exp_data/2020_Jul_12_1133/rec_QA_run_02_block_001_trial_004.wav,,,,02,02,English,A2,True,False,True,False,False,True,True,True,True,True,True,True,No,2,No,No,No,No,2020_Jul_12_1133,nibs_stage_1,3.2.3,59.920854203156125,
2,0,2,0,,,,,1,0,1,0,5,0,5,0,,,,,,,,,,,,,,,,,,,,,,,,,,,,,,,,,,,,,,,,,,,,,,,,,Listen to the question and speak out your answer!,1536.7569859027863,None,1536.723074579239,1538.7563569545746,Der Dieb wurde für sein Verbrechen bestraft.,bestraft,1538.1397443532944,None,1541.07324821949,None,1553.307205271721,1554.3238649368286,1554.7239828109741,None,./data/Subject_02/Session_02/Exp_data/2020_Jul_12_1133/rec_QA_run_02_block_001_trial_005.wav,,,,02,02,English,A2,True,False,True,False,False,True,True,True,True,True,True,True,No,2,No,No,No,No,2020_Jul_12_1133,nibs_stage_1,3.2.3,59.920854203156125,
2,0,2,0,,,,,1,0,1,0,6,0,6,0,,,,,,,,,,,,,,,,,,,,,,,,,,,,,,,,,,,,,,,,,,,,,,,,,Listen to the question and speak out your answer!,1557.7753369808197,None,1557.7575506210328,1559.7742238044739,"Der Klima Schutz soll verhindern, dass es auf der Erde immer wärmer wird.",verhindern,1559.1575172662735,1563.3077178001404,1563.6910732507706,None,1574.3583133935929,None,1575.7749698162079,None,./data/Subject_02/Session_02/Exp_data/2020_Jul_12_1133/rec_QA_run_02_block_001_trial_006.wav,,,,02,02,English,A2,True,False,True,False,False,True,True,True,True,True,True,True,No,2,No,No,No,No,2020_Jul_12_1133,nibs_stage_1,3.2.3,59.920854203156125,
2,0,2,0,,,,,1,0,1,0,7,0,7,0,,,,,,,,,,,,,,,,,,,,,,,,,,,,,,,,,,,,,,,,,,,,,,,,,Listen to the question and speak out your answer!,1578.8425488471985,None,1578.8086446762086,1580.841966867447,Alle Schüler müssen die Vorschrift halten.,halten,1580.2252882242203,1582.6419990062714,1583.0254183530808,None,1595.4260812520981,None,1596.8428308963776,None,./data/Subject_02/Session_02/Exp_data/2020_Jul_12_1133/rec_QA_run_02_block_001_trial_007.wav,,,,02,02,English,A2,True,False,True,False,False,True,True,True,True,True,True,True,No,2,No,No,No,No,2020_Jul_12_1133,nibs_stage_1,3.2.3,59.920854203156125,
2,0,2,0,,,,,1,0,1,0,8,0,8,0,,,,,,,,,,,,,,,,,,,,,,,,,,,,,,,,,,,,,,,,,,,,,,,,,Listen to the question and speak out your answer!,1599.8930869102478,None,1599.8596961259843,1601.893059015274,"Ja, das Wasser aus der Leitung kann man trinken.",trinken,1601.2430232286454,None,1604.5432072401047,None,1616.443841290474,None,1617.860587835312,None,./data/Subject_02/Session_02/Exp_data/2020_Jul_12_1133/rec_QA_run_02_block_001_trial_008.wav,,,,02,02,English,A2,True,False,True,False,False,True,True,True,True,True,True,True,No,2,No,No,No,No,2020_Jul_12_1133,nibs_stage_1,3.2.3,59.920854203156125,
2,0,2,0,,,,,1,0,1,0,9,0,9,0,,,,,,,,,,,,,,,,,,,,,,,,,,,,,,,,,,,,,,,,,,,,,,,,,Listen to the question and speak out your answer!,1620.9292600154877,None,1620.9108431100847,1622.9275839328766,Ich habe gestern Abend mit meiner Mutter geredet.,geredet,1622.3108213663102,None,1625.5776353597641,None,1637.5116043806077,None,1638.9283528327942,None,./data/Subject_02/Session_02/Exp_data/2020_Jul_12_1133/rec_QA_run_02_block_001_trial_009.wav,,,,02,02,English,A2,True,False,True,False,False,True,True,True,True,True,True,True,No,2,No,No,No,No,2020_Jul_12_1133,nibs_stage_1,3.2.3,59.920854203156125,
2,0,2,0,,,,,1,0,1,0,10,0,10,0,,,,,,,,,,,,,,,,,,,,,,,,,,,,,,,,,,,,,,,,,,,,,,,,,Listen to the question and speak out your answer!,1641.979164838791,None,1641.9452932596207,1643.9786128997803,Sie redete leise und unverständlich.,redete,1643.328575205803,None,1646.3954072713852,None,1658.5293353319169,None,1659.9462399482727,None,./data/Subject_02/Session_02/Exp_data/2020_Jul_12_1133/rec_QA_run_02_block_001_trial_010.wav,,,,02,02,English,A2,True,False,True,False,False,True,True,True,True,True,True,True,No,2,No,No,No,No,2020_Jul_12_1133,nibs_stage_1,3.2.3,59.920854203156125,
2,0,2,0,,,,,1,0,1,0,11,0,11,0,,,,,,,,,,,,,,,,,,,,,,,,,,,,,,,,,,,,,,,,,,,,,,,,,Listen to the question and speak out your answer!,1663.013526916504,None,1662.9796966552735,1665.0130469799042,"Ein Bauer hält auf seinem Tiere wie Kühe, Hühner oder Schweine.",hält,1664.3963173151017,None,1668.9299202680588,1669.9466228485107,1679.5971742391587,1680.6138558387756,1681.0138618946075,None,./data/Subject_02/Session_02/Exp_data/2020_Jul_12_1133/rec_QA_run_02_block_001_trial_011.wav,,,,02,02,English,A2,True,False,True,False,False,True,True,True,True,True,True,True,No,2,No,No,No,No,2020_Jul_12_1133,nibs_stage_1,3.2.3,59.920854203156125,
2,0,2,0,,,,,1,0,1,0,12,0,12,0,,,,,,,,,,,,,,,,,,,,,,,,,,,,,,,,,,,,,,,,,,,,,,,,,Listen to the question and speak out your answer!,1684.047917842865,None,1684.0141135692597,1686.047466993332,Nikolaus Kopernikus beschreibt das heliozentrische Weltbild.,beschreibt,1685.4307473421097,None,1689.8309822797776,None,1700.6315413236618,None,1702.0483918190002,None,./data/Subject_02/Session_02/Exp_data/2020_Jul_12_1133/rec_QA_run_02_block_001_trial_012.wav,,,,02,02,English,A2,True,False,True,False,False,True,True,True,True,True,True,True,No,2,No,No,No,No,2020_Jul_12_1133,nibs_stage_1,3.2.3,59.920854203156125,
2,0,2,0,,,,,1,0,1,0,13,0,13,0,,,,,,,,,,,,,,,,,,,,,,,,,,,,,,,,,,,,,,,,,,,,,,,,,Listen to the question and speak out your answer!,1705.0827548503876,None,1705.0652200937272,1707.0819618701935,"Man nennt Klima-Wandel , dass die Temperaturen auf unserer Erde steigen.",steigen,1706.4651892900467,None,1711.2986922979355,None,1721.6659851789475,None,1723.082731962204,None,./data/Subject_02/Session_02/Exp_data/2020_Jul_12_1133/rec_QA_run_02_block_001_trial_013.wav,,,,02,02,English,A2,True,False,True,False,False,True,True,True,True,True,True,True,No,2,No,No,No,No,2020_Jul_12_1133,nibs_stage_1,3.2.3,59.920854203156125,
2,0,2,0,,,,,1,0,1,0,14,0,14,0,,,,,,,,,,,,,,,,,,,,,,,,,,,,,,,,,,,,,,,,,,,,,,,,,Listen to the question and speak out your answer!,1726.1167709827423,None,1726.0830036640168,1728.1163108348846,Im ganzen Umkreis war kein Haus zu finden.,finden,1727.4996143102646,1730.2830169200897,1730.6664582014084,None,1742.700409245491,None,1744.1171839237213,None,./data/Subject_02/Session_02/Exp_data/2020_Jul_12_1133/rec_QA_run_02_block_001_trial_014.wav,,,,02,02,English,A2,True,False,True,False,False,True,True,True,True,True,True,True,No,2,No,No,No,No,2020_Jul_12_1133,nibs_stage_1,3.2.3,59.920854203156125,
2,0,2,0,,,,,1,0,1,0,15,0,15,0,,,,,,,,,,,,,,,,,,,,,,,,,,,,,,,,,,,,,,,,,,,,,,,,,Listen to the question and speak out your answer!,1747.1521248817444,None,1747.1341140031816,1749.1506588459015,Wir sind mit dem Jeep auf Safari in Kenia gefahren.,gefahren,1748.5340643644333,None,1752.3010142564774,None,1763.7348352193833,None,1765.1515998840332,None,./data/Subject_02/Session_02/Exp_data/2020_Jul_12_1133/rec_QA_run_02_block_001_trial_015.wav,,,,02,02,English,A2,True,False,True,False,False,True,True,True,True,True,True,True,No,2,No,No,No,No,2020_Jul_12_1133,nibs_stage_1,3.2.3,59.920854203156125,
2,0,2,0,,,,,1,0,1,0,16,0,16,0,,,,,,,,,,,,,,,,,,,,,,,,,,,,,,,,,,,,,,,,,,,,,,,,,Listen to the question and speak out your answer!,1768.2351830005646,None,1768.2018570661546,1770.2352378368378,Toni fliegt mit dem Flugzeug nach.,fliegt,1769.5851462602616,None,1772.3186383962632,None,1784.7859462022782,None,1786.2026829719543,None,./data/Subject_02/Session_02/Exp_data/2020_Jul_12_1133/rec_QA_run_02_block_001_trial_016.wav,,,,02,02,English,A2,True,False,True,False,False,True,True,True,True,True,True,True,No,2,No,No,No,No,2020_Jul_12_1133,nibs_stage_1,3.2.3,59.920854203156125,
2,0,2,0,,,,,1,0,1,0,17,0,17,0,,,,,,,,,,,,,,,,,,,,,,,,,,,,,,,,,,,,,,,,,,,,,,,,,Listen to the question and speak out your answer!,1789.270183801651,None,1789.236265563965,1791.269604921341,Sie brauchen ein ärztliches Zeugnis.,brauchen,1790.652907204628,1793.1030218601227,1793.4530423402787,None,1805.8538463830948,None,1807.2704257965088,None,./data/Subject_02/Session_02/Exp_data/2020_Jul_12_1133/rec_QA_run_02_block_001_trial_017.wav,,,,02,02,English,A2,True,False,True,False,False,True,True,True,True,True,True,True,No,2,No,No,No,No,2020_Jul_12_1133,nibs_stage_1,3.2.3,59.920854203156125,
2,0,2,0,,,,,1,0,1,0,18,0,18,0,,,,,,,,,,,,,,,,,,,,,,,,,,,,,,,,,,,,,,,,,,,,,,,,,Listen to the question and speak out your answer!,1810.3054900169373,None,1810.2874030828477,1812.3040149211884,"Ich rechne fest damit, dass er kommt.",rechne,1811.6873284101487,None,1814.4541261911393,None,1826.8881161928177,None,1828.3048729896545,None,./data/Subject_02/Session_02/Exp_data/2020_Jul_12_1133/rec_QA_run_02_block_001_trial_018.wav,,,,02,02,English,A2,True,False,True,False,False,True,True,True,True,True,True,True,No,2,No,No,No,No,2020_Jul_12_1133,nibs_stage_1,3.2.3,59.920854203156125,
2,0,2,0,,,,,1,0,1,0,19,0,19,0,,,,,,,,,,,,,,,,,,,,,,,,,,,,,,,,,,,,,,,,,,,,,,,,,Listen to the question and speak out your answer!,1831.3550310134888,None,1831.3218131780625,1833.3551127910614,"Ich berichtete der Polizei alles, was ich gesehen hatte.",berichtete,1832.705094408989,1836.1888599395752,1836.5718603849411,None,1847.9058733701706,None,1849.3226389884949,None,./data/Subject_02/Session_02/Exp_data/2020_Jul_12_1133/rec_QA_run_02_block_001_trial_019.wav,,,,02,02,English,A2,True,False,True,False,False,True,True,True,True,True,True,True,No,2,No,No,No,No,2020_Jul_12_1133,nibs_stage_1,3.2.3,59.920854203156125,
2,0,2,0,,,,,1,0,1,0,20,0,20,0,,,,,,,,,,,,,,,,,,,,,,,,,,,,,,,,,,,,,,,,,,,,,,,,,Listen to the question and speak out your answer!,1852.3900969028473,None,1852.3562056064607,1854.3896479606628,"Die Regierung plant, mehr Arbeitsplätze für junge Menschen zu schaffen.",schaffen,1853.7728331804276,1857.8563849925995,1858.2397382974625,None,1868.973638367653,None,1870.3903858661652,None,./data/Subject_02/Session_02/Exp_data/2020_Jul_12_1133/rec_QA_run_02_block_001_trial_020.wav,,,,02,02,English,A2,True,False,True,False,False,True,True,True,True,True,True,True,No,2,No,No,No,No,2020_Jul_12_1133,nibs_stage_1,3.2.3,59.920854203156125,
2,0,2,0,,,,,1,0,1,0,21,0,21,0,,,,,,,,,,,,,,,,,,,,,,,,,,,,,,,,,,,,,,,,,,,,,,,,,Listen to the question and speak out your answer!,1873.4239468574524,None,1873.3906306266786,1875.4239649772644,Durch die Klimaveränderung steigen die Temperaturen auf der Erde.,steigen,1874.7739473104477,1878.9242589473724,1879.307543349266,None,1889.9747272253037,None,1891.3914678096771,None,./data/Subject_02/Session_02/Exp_data/2020_Jul_12_1133/rec_QA_run_02_block_001_trial_021.wav,,,,02,02,English,A2,True,False,True,False,False,True,True,True,True,True,True,True,No,2,No,No,No,No,2020_Jul_12_1133,nibs_stage_1,3.2.3,59.920854203156125,
2,0,2,0,,,,,1,0,1,0,22,0,22,0,,,,,,,,,,,,,,,,,,,,,,,,,,,,,,,,,,,,,,,,,,,,,,,,,Listen to the question and speak out your answer!,1894.5089268684387,None,1894.475066781044,1896.5083827972412,Salz und Pfeffer machten das Steak genießbar.,machten,1895.8917263269425,None,1899.2918642282486,None,1911.0924983739853,None,1912.5092279911041,None,./data/Subject_02/Session_02/Exp_data/2020_Jul_12_1133/rec_QA_run_02_block_001_trial_022.wav,,,,02,02,English,A2,True,False,True,False,False,True,True,True,True,True,True,True,No,2,No,No,No,No,2020_Jul_12_1133,nibs_stage_1,3.2.3,59.920854203156125,
2,0,2,0,,,,,1,0,1,0,23,0,23,0,,,,,,,,,,,,,,,,,,,,,,,,,,,,,,,,,,,,,,,,,,,,,,,,,Listen to the question and speak out your answer!,1915.5427539348602,None,1915.5094875335694,1917.5428898334503,"Wenn es am Sonntag Morgen regnet, bleibt Franz den ganzen Tag im Bett.",bleibt,1916.9261253595353,1921.076332807541,1921.459692311287,None,1932.1270423650742,None,1933.5436718463898,None,./data/Subject_02/Session_02/Exp_data/2020_Jul_12_1133/rec_QA_run_02_block_001_trial_023.wav,,,,02,02,English,A2,True,False,True,False,False,True,True,True,True,True,True,True,No,2,No,No,No,No,2020_Jul_12_1133,nibs_stage_1,3.2.3,59.920854203156125,
2,0,2,0,,,,,1,0,1,0,24,0,24,0,,,,,,,,,,,,,,,,,,,,,,,,,,,,,,,,,,,,,,,,,,,,,,,,,Listen to the question and speak out your answer!,1936.577220916748,None,1936.543902540207,1938.5772659778595,Sie hat den Kuchen in einer runden Form gebacken.,gebacken,1937.9272163629532,1940.7773640155792,1941.1941152334214,None,1953.1280153512955,None,1954.544751882553,None,./data/Subject_02/Session_02/Exp_data/2020_Jul_12_1133/rec_QA_run_02_block_001_trial_024.wav,,,,02,02,English,A2,True,False,True,False,False,True,True,True,True,True,True,True,No,2,No,No,No,No,2020_Jul_12_1133,nibs_stage_1,3.2.3,59.920854203156125,
2,0,2,0,,,,,1,0,1,0,,,,,,,,,,,,,,,,,,,,,,,,,,,,,,,,,,,,,,,,,,1958.5949590206146,None,,,,,,,,,,,,,,,,,,,,,,,,,,,,,02,02,English,A2,True,False,True,False,False,True,True,True,True,True,True,True,No,2,No,No,No,No,2020_Jul_12_1133,nibs_stage_1,3.2.3,59.920854203156125,
2,0,2,0,,,,,,,,,,,,,,,,,,,,,,,,,,,,,,,,,,,,,,,,,,,,,,,,,,,,,,,,,,,,,,,,,,,,,,,,,,,,,Please remain seated until further instruction via the earphone.,59.21338391304016,None,02,02,English,A2,True,False,True,False,False,True,True,True,True,True,True,True,No,2,No,No,No,No,2020_Jul_12_1133,nibs_stage_1,3.2.3,59.920854203156125,
