artifact_trial.thisRepN,artifact_trial.thisTrialN,artifact_trial.thisN,artifact_trial.thisIndex,pre_trial.thisRepN,pre_trial.thisTrialN,pre_trial.thisN,pre_trial.thisIndex,instruction_text.text,instruction_text.started,instruction_text.stopped,instruction_cont.started,instruction_cont.stopped,Artifact_intro_title.started,Artifact_intro_title.stopped,Artifact_intro_text.text,Artifact_intro_text.started,Artifact_intro_text.stopped,Artifact_intro_audio.started,Artifact_intro_audio.stopped,Artifact_intro_cont.started,Artifact_intro_cont.stopped,Artifact_rec_text.text,Artifact_rec_text.started,Artifact_rec_text.stopped,Artifact_rec_beep_hint.started,Artifact_rec_beep_hint.stopped,Artifact_rec_action.started,Artifact_rec_action.stopped,Artifact_rec_beep_start.started,Artifact_rec_beep_start.stopped,Artifact_rec_recording.started,Artifact_rec_recording.stopped,Artifact_rec_beep_end.started,Artifact_rec_beep_end.stopped,Artifact_rec_break.started,Artifact_rec_break.stopped,Cali_de_pre_intro_title.started,Cali_de_pre_intro_title.stopped,Cali_de_pre_intro_text.text,Cali_de_pre_intro_text.started,Cali_de_pre_intro_text.stopped,Cali_de_pre_intro_audio.started,Cali_de_pre_intro_audio.stopped,Cali_de_pre_intro_cont.started,Cali_de_pre_intro_cont.stopped,Cali_de_pre_rec_text.text,Cali_de_pre_rec_text.started,Cali_de_pre_rec_text.stopped,Cali_de_pre_rec_beep_hint.started,Cali_de_pre_rec_beep_hint.stopped,Cali_de_pre_rec_question_text.text,Cali_de_pre_rec_question_text.started,Cali_de_pre_rec_question_text.stopped,Cali_de_pre_rec_beep_start.started,Cali_de_pre_rec_beep_start.stopped,Cali_de_pre_rec_beep_end.started,Cali_de_pre_rec_beep_end.stopped,Cali_de_pre_rec_break.started,Cali_de_pre_rec_break.stopped,filename,participant,session,First language,German level,Full_screen,Instruction,Intro,Artifact,Cali_pre,Fade_in_out,Artifact_within,Resting_State,QA,Pause,Cali_post,End,Breakpoint_Cali_pre_trial,Breakpoint_Run,Breakpoint_RS_block,Breakpoint_QA_block,Breakpoint_QA_trial,Breakpoint_Cali_post_trial,date,expName,psychopyVersion,frameRate,
0,0,0,0,,,,,"     Thank you for participating in the experiment: 

     Personalized non-invasive brain stimulation    
            for second language learning            
",21.737842798233032,None,36.70537877082825,None,40.155274868011475,67.1736249923706,"  - Task: Artifacts collection   
  - Please follow audio instruction              
",40.155274868011475,67.1736249923706,40.15559754371643,None,66.54022789001465,None,,70.30705189704895,None,70.29070267677307,72.29045987129211,71.6737977027893,None,75.07395849227905,None,76.47402653694152,86.4745569229126,86.87454566955566,None,88.27466678619385,89.27468800544739,,,,,,,,,,,,,,,,,,,,,,,,,06,01,Ducth,A2,True,True,True,True,True,True,True,True,True,True,True,True,No,No,No,No,No,No,2020_Jul_15_1022,nibs_stage_1,3.2.3,60.02366999391793,
1,0,1,0,,,,,,,,,,,,,,,,,,,,92.32475686073303,None,92.30855855941772,94.30832695960999,93.69156966209411,None,97.09177861213684,None,98.49185047149658,108.49230885505676,108.8923285961151,None,110.29238486289978,111.29244589805603,,,,,,,,,,,,,,,,,,,,,,,,,06,01,Ducth,A2,True,True,True,True,True,True,True,True,True,True,True,True,No,No,No,No,No,No,2020_Jul_15_1022,nibs_stage_1,3.2.3,60.02366999391793,
2,0,2,0,,,,,,,,,,,,,,,,,,,,114.3425509929657,None,114.32594666481017,116.32604598999023,115.70931968688964,None,119.1095236301422,None,120.50981554985046,130.51013278961182,130.91010961532592,None,132.3101909160614,133.31023693084717,,,,,,,,,,,,,,,,,,,,,,,,,06,01,Ducth,A2,True,True,True,True,True,True,True,True,True,True,True,True,No,No,No,No,No,No,2020_Jul_15_1022,nibs_stage_1,3.2.3,60.02366999391793,
3,0,3,0,,,,,,,,,,,,,,,,,,,,136.36037683486938,None,136.34368453025817,138.34374284744263,137.72715458869934,None,141.127334690094,None,142.5273886680603,152.52784299850464,152.92758259773254,None,154.32773184776306,155.32789397239685,,,,,,,,,,,,,,,,,,,,,,,,,06,01,Ducth,A2,True,True,True,True,True,True,True,True,True,True,True,True,No,No,No,No,No,No,2020_Jul_15_1022,nibs_stage_1,3.2.3,60.02366999391793,
4,0,4,0,,,,,,,,,,,,,,,,,,,,158.37836384773254,None,158.36120257377624,160.36161589622498,159.74490151405334,None,163.14525566101074,None,164.54588470458984,174.54567885398865,174.94569358825683,None,176.34575581550598,177.34575200080872,,,,,,,,,,,,,,,,,,,,,,,,,06,01,Ducth,A2,True,True,True,True,True,True,True,True,True,True,True,True,No,No,No,No,No,No,2020_Jul_15_1022,nibs_stage_1,3.2.3,60.02366999391793,
5,0,5,0,,,,,,,,,,,,,,,,,,,,180.39589500427246,None,180.37934956550598,182.37944984436035,181.76270565986633,None,185.16288647651672,None,186.562997674942,196.56350588798523,196.96346459388732,None,198.3634548187256,199.36397790908813,,,,,,,,,,,,,,,,,,,,,,,,,06,01,Ducth,A2,True,True,True,True,True,True,True,True,True,True,True,True,No,No,No,No,No,No,2020_Jul_15_1022,nibs_stage_1,3.2.3,60.02366999391793,
6,0,6,0,,,,,,,,,,,,,,,,,,,,202.41361379623413,None,202.39740452766418,204.3972098827362,203.78057370185851,None,207.18143663406372,None,208.58076057434081,218.58197498321533,218.98126349449157,None,220.38135981559753,221.38140988349915,,,,,,,,,,,,,,,,,,,,,,,,,06,01,Ducth,A2,True,True,True,True,True,True,True,True,True,True,True,True,No,No,No,No,No,No,2020_Jul_15_1022,nibs_stage_1,3.2.3,60.02366999391793,
7,0,7,0,,,,,,,,,,,,,,,,,,,,224.4313178062439,None,224.415274477005,226.41499781608582,225.79847869873046,228.79847693443298,229.19849452972412,None,230.5984827041626,240.5988929271698,240.99894461631774,241.99899196624756,242.39910578727722,243.39889883995056,,,,,,,,,,,,,,,,,,,,,,,,,06,01,Ducth,A2,True,True,True,True,True,True,True,True,True,True,True,True,No,No,No,No,No,No,2020_Jul_15_1022,nibs_stage_1,3.2.3,60.02366999391793,
8,0,8,0,,,,,,,,,,,,,,,,,,,,246.44942688941956,None,246.43251762390136,248.43278789520264,247.81577167510986,250.81597185134888,251.21615061759948,None,252.61618766784667,262.6167469024658,263.0167575836182,264.01679277420044,264.4167449474335,265.4168019294739,,,,,,,,,,,,,,,,,,,,,,,,,06,01,Ducth,A2,True,True,True,True,True,True,True,True,True,True,True,True,No,No,No,No,No,No,2020_Jul_15_1022,nibs_stage_1,3.2.3,60.02366999391793,
9,0,9,0,,,,,,,,,,,,,,,,,,,,268.46694588661194,None,268.45057067871096,270.4504668712616,269.83389458656313,272.833860874176,273.2339135169983,None,274.63389549255373,284.63451385498047,285.0345614910126,286.0345079898834,286.43458795547485,287.43468499183655,,,,,,,,,,,,,,,,,,,,,,,,,06,01,Ducth,A2,True,True,True,True,True,True,True,True,True,True,True,True,No,No,No,No,No,No,2020_Jul_15_1022,nibs_stage_1,3.2.3,60.02366999391793,
10,0,10,0,,,,,,,,,,,,,,,,,,,,290.48481488227844,None,290.4681244850159,292.46817994117737,291.8514696121216,None,295.25172648429873,None,296.65183267593386,306.6522858142853,307.0522716999054,None,308.45231795310974,309.45248079299927,,,,,,,,,,,,,,,,,,,,,,,,,06,01,Ducth,A2,True,True,True,True,True,True,True,True,True,True,True,True,No,No,No,No,No,No,2020_Jul_15_1022,nibs_stage_1,3.2.3,60.02366999391793,
11,0,11,0,,,,,,,,,,,,,,,,,,,,312.5025498867035,None,312.4858895301819,314.4859628677368,313.86926755905154,None,317.2693725585938,None,318.66958651542666,328.6702950000763,329.07027969360354,330.0870249271393,330.4704248905182,331.4704089164734,,,,,,,,,,,,,,,,,,,,,,,,,06,01,Ducth,A2,True,True,True,True,True,True,True,True,True,True,True,True,No,No,No,No,No,No,2020_Jul_15_1022,nibs_stage_1,3.2.3,60.02366999391793,
12,0,12,0,,,,,,,,,,,,,,,,,,,,334.52060294151306,None,334.50407848358157,336.5039827823639,335.88737449646,338.88745498657227,339.2874716281891,None,340.68756160736086,350.68805384635925,351.0881296157837,352.0881299972534,352.48822593688965,353.488196849823,,,,,,,,,,,,,,,,,,,,,,,,,06,01,Ducth,A2,True,True,True,True,True,True,True,True,True,True,True,True,No,No,No,No,No,No,2020_Jul_15_1022,nibs_stage_1,3.2.3,60.02366999391793,
13,0,13,0,,,,,,,,,,,,,,,,,,,,356.538715839386,None,356.5219176769257,358.521714925766,357.90512762069704,None,361.3054045200348,None,362.70538053512576,372.70589780807495,373.1057845115662,374.1059467792511,374.5059700012207,375.50620579719543,,,,,,,,,,,,,,,,,,,,,,,,,06,01,Ducth,A2,True,True,True,True,True,True,True,True,True,True,True,True,No,No,No,No,No,No,2020_Jul_15_1022,nibs_stage_1,3.2.3,60.02366999391793,
14,0,14,0,,,,,,,,,,,,,,,,,,,,378.55641293525696,None,378.5395425319672,380.53964400291443,379.9229606151581,None,383.3230784893036,None,384.72318468093874,394.7237207889557,395.1237586498261,None,396.52381777763367,397.52379989624023,,,,,,,,,,,,,,,,,,,,,,,,,06,01,Ducth,A2,True,True,True,True,True,True,True,True,True,True,True,True,No,No,No,No,No,No,2020_Jul_15_1022,nibs_stage_1,3.2.3,60.02366999391793,
,,,,0,0,0,0,,,,,,,,,,,,,,,,,,,,,,,,,,,,,,401.59110498428345,431.6087689399719,"  - Task: Read out the displayed German sentence   
  - Melodious beep sound: Trial start              
  - Beep sound with increasing pitch: Rec. start   
  - Beep sound with decreasing pitch: Rec. finish  
",401.59110498428345,431.6087689399719,401.5739425182343,None,430.99202489852905,None,,435.57592487335205,None,435.55885968208315,437.5592339038849,In Österreich darf ein Präsident 6 Jahre regieren.,436.9591839313507,454.56014490127563,438.35936365127566,None,451.15994057655337,None,452.5601408481598,454.56014490127563,./data/Subject_06/Session_01/Exp_data/2020_Jul_15_1022/rec_cali_de_pre_trial_000.wav,06,01,Ducth,A2,True,True,True,True,True,True,True,True,True,True,True,True,No,No,No,No,No,No,2020_Jul_15_1022,nibs_stage_1,3.2.3,60.02366999391793,
,,,,1,0,1,0,,,,,,,,,,,,,,,,,,,,,,,,,,,,,,,,,,,,,,,,457.59393191337585,None,457.57701954841616,459.57706689834595,"Ich sitze weit entfernt von der Bühne, also schaue ich durch ein Fernglas.",458.97702193260193,476.5779638290405,460.3770955562592,None,473.17779359817507,None,474.5778868198395,476.5779638290405,./data/Subject_06/Session_01/Exp_data/2020_Jul_15_1022/rec_cali_de_pre_trial_001.wav,06,01,Ducth,A2,True,True,True,True,True,True,True,True,True,True,True,True,No,No,No,No,No,No,2020_Jul_15_1022,nibs_stage_1,3.2.3,60.02366999391793,
,,,,2,0,2,0,,,,,,,,,,,,,,,,,,,,,,,,,,,,,,,,,,,,,,,,479.61180877685547,None,479.5949545860291,481.59480690956116,"Ich glaube, es geht um eine Puppe.",480.9949629306793,498.61283898353577,482.3947096824646,None,495.19536051750185,496.2120978832245,496.6122169494629,498.64578580856323,./data/Subject_06/Session_01/Exp_data/2020_Jul_15_1022/rec_cali_de_pre_trial_002.wav,06,01,Ducth,A2,True,True,True,True,True,True,True,True,True,True,True,True,No,No,No,No,No,No,2020_Jul_15_1022,nibs_stage_1,3.2.3,60.02366999391793,
,,,,3,0,3,0,,,,,,,,,,,,,,,,,,,,,,,,,,,,,,,,,,,,,,,,501.6462969779968,None,501.6290634632111,503.64587783813477,"Im Kaffeehaus sitzen und Zeitung lesen, das gefällt den Österreichern.",503.04586482048035,520.6801519393921,504.42916855812075,505.446005821228,517.2298475265503,518.2466189861298,518.6467039585114,520.6801519393921,./data/Subject_06/Session_01/Exp_data/2020_Jul_15_1022/rec_cali_de_pre_trial_003.wav,06,01,Ducth,A2,True,True,True,True,True,True,True,True,True,True,True,True,No,No,No,No,No,No,2020_Jul_15_1022,nibs_stage_1,3.2.3,60.02366999391793,
,,,,4,0,4,0,,,,,,,,,,,,,,,,,,,,,,,,,,,,,,,,,,,,,,,,523.6806938648224,None,523.6637514591217,525.6804058551788,In Österreich gibt es eine richtige Kaffeehauskultur.,525.080249786377,542.7145838737488,526.4637595176697,None,539.2644225120545,540.2810637950897,540.6810898780823,542.7145838737488,./data/Subject_06/Session_01/Exp_data/2020_Jul_15_1022/rec_cali_de_pre_trial_004.wav,06,01,Ducth,A2,True,True,True,True,True,True,True,True,True,True,True,True,No,No,No,No,No,No,2020_Jul_15_1022,nibs_stage_1,3.2.3,60.02366999391793,
,,,,5,0,5,0,,,,,,,,,,,,,,,,,,,,,,,,,,,,,,,,,,,,,,,,545.7152798175812,None,545.6981614589691,547.7148728370667,"Ich kann dir gerne mein Fahrrad leihen, wenn du möchtest.",547.1147589683533,564.7491159439087,548.4981776237488,None,561.2989305019379,None,562.7157618999481,564.7491159439087,./data/Subject_06/Session_01/Exp_data/2020_Jul_15_1022/rec_cali_de_pre_trial_005.wav,06,01,Ducth,A2,True,True,True,True,True,True,True,True,True,True,True,True,No,No,No,No,No,No,2020_Jul_15_1022,nibs_stage_1,3.2.3,60.02366999391793,
,,,,6,0,6,0,,,,,,,,,,,,,,,,,,,,,,,,,,,,,,,,,,,,,,,,567.7496919631958,None,567.73263463974,569.7493619918823,In der Pause werden kleine Brötchen serviert.,569.1493349075317,586.7835829257965,570.5327256679535,None,583.3334196567536,None,584.7500848770142,586.7835829257965,./data/Subject_06/Session_01/Exp_data/2020_Jul_15_1022/rec_cali_de_pre_trial_006.wav,06,01,Ducth,A2,True,True,True,True,True,True,True,True,True,True,True,True,No,No,No,No,No,No,2020_Jul_15_1022,nibs_stage_1,3.2.3,60.02366999391793,
,,,,7,0,7,0,,,,,,,,,,,,,,,,,,,,,,,,,,,,,,,,,,,,,,,,589.7836689949036,None,589.7671025753021,591.7838628292084,Für mich ist die schönste aller Blumen die Rose.,591.1838238239288,608.8179907798767,592.5672014713288,593.5839478969574,605.3679476737976,606.3846287727356,606.7846438884735,608.8179907798767,./data/Subject_06/Session_01/Exp_data/2020_Jul_15_1022/rec_cali_de_pre_trial_007.wav,06,01,Ducth,A2,True,True,True,True,True,True,True,True,True,True,True,True,No,No,No,No,No,No,2020_Jul_15_1022,nibs_stage_1,3.2.3,60.02366999391793,
,,,,8,0,8,0,,,,,,,,,,,,,,,,,,,,,,,,,,,,,,,,,,,,,,,,611.8181757926941,None,611.8015135288239,613.8183388710022,Eine Woche hat sieben Tage.,613.2182228565216,630.852597951889,614.6015556812287,None,627.4023095130921,628.4194128513336,628.8190639019012,630.852597951889,./data/Subject_06/Session_01/Exp_data/2020_Jul_15_1022/rec_cali_de_pre_trial_008.wav,06,01,Ducth,A2,True,True,True,True,True,True,True,True,True,True,True,True,No,No,No,No,No,No,2020_Jul_15_1022,nibs_stage_1,3.2.3,60.02366999391793,
,,,,9,0,9,0,,,,,,,,,,,,,,,,,,,,,,,,,,,,,,,,,,,,,,,,633.8695027828217,None,633.8361326217652,635.8693828582764,Der Ton macht die Musik.,635.2697668075562,652.9036037921906,636.6528826713562,None,649.4536856174469,None,650.8704259395599,652.9036037921906,./data/Subject_06/Session_01/Exp_data/2020_Jul_15_1022/rec_cali_de_pre_trial_009.wav,06,01,Ducth,A2,True,True,True,True,True,True,True,True,True,True,True,True,No,No,No,No,No,No,2020_Jul_15_1022,nibs_stage_1,3.2.3,60.02366999391793,
