run.thisRepN,run.thisTrialN,run.thisN,run.thisIndex,QA_block.thisRepN,QA_block.thisTrialN,QA_block.thisN,QA_block.thisIndex,QA_trial.thisRepN,QA_trial.thisTrialN,QA_trial.thisN,QA_trial.thisIndex,fade_in_text.text,fade_in_text.started,fade_in_text.stopped,RS_intro_title.started,RS_intro_title.stopped,RS_intro_text.text,RS_intro_text.started,RS_intro_text.stopped,RS_intro_audio.started,RS_intro_audio.stopped,RS_rec_text.text,RS_rec_text.started,RS_rec_text.stopped,Pause_cont.started,Pause_cont.stopped,QA_intro_title.started,QA_intro_title.stopped,QA_intro_text.text,QA_intro_text.started,QA_intro_text.stopped,QA_intro_audio.started,QA_intro_audio.stopped,QA_intro_cont.started,QA_intro_cont.stopped,QA_rec_text.text,QA_rec_text.started,QA_rec_text.stopped,QA_rec_beep_hint.started,QA_rec_beep_hint.stopped,QA_rec_question.sen_text,QA_rec_question.cen_text,QA_rec_question.started,QA_rec_question.stopped,QA_rec_beep_start.started,QA_rec_beep_start.stopped,QA_rec_beep_end.started,QA_rec_beep_end.stopped,QA_rec_break.started,QA_rec_break.stopped,filename,participant,session,First language,German level,Full_screen,Instruction,Intro,Artifact,Cali_pre,Fade_in_out,Artifact_within,Resting_State,QA,Pause,Cali_post,End,Breakpoint_Cali_pre_trial,Breakpoint_Run,Breakpoint_RS_block,Breakpoint_QA_block,Breakpoint_QA_trial,Breakpoint_Cali_post_trial,date,expName,psychopyVersion,frameRate,
1,0,1,0,0,0,0,0,0,0,0,0,Please remain seated until further instruction via the earphone.,67.4806399345398,None,276.9246048927307,None," - Task: Keep seated and relaxed with either      
             opening or closing eyes                  
 - Beep sound with decreasing pitch: Block finish 
",276.9246048927307,None,276.90906715393066,None,"Please keep relaxed and close your eyes.
",299.94241189956665,479.95223093032837,483.35204792022705,None,498.3701319694519,538.3720600605011," - Task: Listen to the question& Speak out answer 
 - Melodious beep sound: Trial start              
 - Silent sound (blank): censored word            
 - Beep sound with increasing pitch: Rec. start   
 - Beep sound with decreasing pitch: Rec. finish  
",498.3701319694519,538.3720600605011,498.37131929397583,None,537.7549629211426,None,Listen to the question and speak out your answer!,561.5229411125183,None,561.5081973075867,563.5230209827423,Die Ergebnisse werden auf einer Skala von eins bis zehn angezeigt.,angezeigt,562.9067080020905,None,567.5064578056335,None,578.1071088314056,None,579.5070879459381,580.5071969032288,./data/Subject_01/Session_02/Exp_data/2020_Jul_13_1744/rec_QA_run_01_block_000_trial_000.wav,01,02,English,A2,True,False,True,False,False,True,True,True,True,True,True,True,No,1,No,No,No,No,2020_Jul_13_1744,nibs_stage_1,3.2.3,59.99525107780508,
1,0,1,0,0,0,0,0,1,0,1,0,,,,,,,,,,,,,,,,,,,,,,,,,Listen to the question and speak out your answer!,582.5573060512543,None,582.5417790412903,584.5407409667969,Das Sprachinstitut bietet Kurse für Anfänger an.,bietet,583.9241888523102,587.1908929347992,587.6075708866119,None,599.124862909317,None,600.5250329971313,601.5249578952789,./data/Subject_01/Session_02/Exp_data/2020_Jul_13_1744/rec_QA_run_01_block_000_trial_001.wav,01,02,English,A2,True,False,True,False,False,True,True,True,True,True,True,True,No,1,No,No,No,No,2020_Jul_13_1744,nibs_stage_1,3.2.3,59.99525107780508,
1,0,1,0,0,0,0,0,2,0,2,0,,,,,,,,,,,,,,,,,,,,,,,,,Listen to the question and speak out your answer!,603.5757119655609,None,603.5763010978699,605.5918369293213,"Ich ging zum Arzt, weil ich mich unangenehm fühlte.",fühlte,604.9585359096527,608.1087560653687,608.5086770057678,None,620.1593058109283,621.1592829227448,621.5593340396881,622.5593910217285,./data/Subject_01/Session_02/Exp_data/2020_Jul_13_1744/rec_QA_run_01_block_000_trial_002.wav,01,02,English,A2,True,False,True,False,False,True,True,True,True,True,True,True,No,1,No,No,No,No,2020_Jul_13_1744,nibs_stage_1,3.2.3,59.99525107780508,
1,0,1,0,0,0,0,0,3,0,3,0,,,,,,,,,,,,,,,,,,,,,,,,,Listen to the question and speak out your answer!,624.6277410984039,None,624.6274211406708,626.6430180072784,Die Stadt liegt nahe am Meer.,liegt,626.009614944458,None,628.1762959957123,None,641.1937379837036,None,642.5937430858612,643.5941660404205,./data/Subject_01/Session_02/Exp_data/2020_Jul_13_1744/rec_QA_run_01_block_000_trial_003.wav,01,02,English,A2,True,False,True,False,False,True,True,True,True,True,True,True,No,1,No,No,No,No,2020_Jul_13_1744,nibs_stage_1,3.2.3,59.99525107780508,
1,0,1,0,0,0,0,0,4,0,4,0,,,,,,,,,,,,,,,,,,,,,,,,,Listen to the question and speak out your answer!,645.6614758968353,None,645.6453940868378,647.6609809398651,"Denk nicht so viel darüber nach, das wird nichts bringen.",bringen,647.0277469158173,650.1111650466919,650.5277888774872,None,662.228364944458,None,663.6283578872681,664.6284821033478,./data/Subject_01/Session_02/Exp_data/2020_Jul_13_1744/rec_QA_run_01_block_000_trial_004.wav,01,02,English,A2,True,False,True,False,False,True,True,True,True,True,True,True,No,1,No,No,No,No,2020_Jul_13_1744,nibs_stage_1,3.2.3,59.99525107780508,
1,0,1,0,0,0,0,0,5,0,5,0,,,,,,,,,,,,,,,,,,,,,,,,,Listen to the question and speak out your answer!,666.6952209472656,None,666.679769039154,668.6787359714508,Ich muss für meine wichtige Prüfung morgen lernen.,lernen,668.0786778926849,670.9788000583649,671.3787748813629,672.3789050579071,683.2795648574829,None,684.6795339584351,685.6795709133148,./data/Subject_01/Session_02/Exp_data/2020_Jul_13_1744/rec_QA_run_01_block_000_trial_005.wav,01,02,English,A2,True,False,True,False,False,True,True,True,True,True,True,True,No,1,No,No,No,No,2020_Jul_13_1744,nibs_stage_1,3.2.3,59.99525107780508,
1,0,1,0,0,0,0,0,6,0,6,0,,,,,,,,,,,,,,,,,,,,,,,,,Listen to the question and speak out your answer!,687.730721950531,None,687.7308299541473,689.7297480106354,"Ich warte seit drei Tagen auf Sie, wo waren Sie denn?",warte,689.1131548881531,692.4132959842682,692.8133859634399,None,704.2972249984741,None,705.6972060203552,706.6973609924316,./data/Subject_01/Session_02/Exp_data/2020_Jul_13_1744/rec_QA_run_01_block_000_trial_006.wav,01,02,English,A2,True,False,True,False,False,True,True,True,True,True,True,True,No,1,No,No,No,No,2020_Jul_13_1744,nibs_stage_1,3.2.3,59.99525107780508,
1,0,1,0,0,0,0,0,7,0,7,0,,,,,,,,,,,,,,,,,,,,,,,,,Listen to the question and speak out your answer!,708.7808389663696,None,708.765260219574,710.7643220424652,Die Polizei sammelte alle verfügbaren Informationen.,sammelte,710.1642169952393,None,714.2477807998657,None,725.3649837970734,None,726.7650730609894,727.7652831077576,./data/Subject_01/Session_02/Exp_data/2020_Jul_13_1744/rec_QA_run_01_block_000_trial_007.wav,01,02,English,A2,True,False,True,False,False,True,True,True,True,True,True,True,No,1,No,No,No,No,2020_Jul_13_1744,nibs_stage_1,3.2.3,59.99525107780508,
1,0,1,0,0,0,0,0,8,0,8,0,,,,,,,,,,,,,,,,,,,,,,,,,Listen to the question and speak out your answer!,729.8156449794769,None,729.7998652458191,731.8151209354401,Die Flasche steht auf dem Tisch.,steht,731.198499917984,733.1320819854736,733.5488319396973,None,746.3993539810181,747.3994750976562,747.7994999885559,748.7997109889984,./data/Subject_01/Session_02/Exp_data/2020_Jul_13_1744/rec_QA_run_01_block_000_trial_008.wav,01,02,English,A2,True,False,True,False,False,True,True,True,True,True,True,True,No,1,No,No,No,No,2020_Jul_13_1744,nibs_stage_1,3.2.3,59.99525107780508,
1,0,1,0,0,0,0,0,9,0,9,0,,,,,,,,,,,,,,,,,,,,,,,,,Listen to the question and speak out your answer!,750.8497068881989,None,750.8342931270599,752.849720954895,Ich habe gerade meine Bewerbung bei der Universität eingereicht. ,eingereicht,752.2170720100403,755.9999349117279,756.416601896286,None,767.4174439907074,None,768.817498922348,769.8173069953918,./data/Subject_01/Session_02/Exp_data/2020_Jul_13_1744/rec_QA_run_01_block_000_trial_009.wav,01,02,English,A2,True,False,True,False,False,True,True,True,True,True,True,True,No,1,No,No,No,No,2020_Jul_13_1744,nibs_stage_1,3.2.3,59.99525107780508,
1,0,1,0,0,0,0,0,10,0,10,0,,,,,,,,,,,,,,,,,,,,,,,,,Listen to the question and speak out your answer!,771.8841230869293,None,771.8685660362244,773.8843719959259,Während oder nach einem Regen kann man einen Regenbogen vorsehen.,vorsehen,773.2508869171143,777.1176381111145,777.5178279876709,None,788.451663017273,None,789.8516991138458,790.8517520427704,./data/Subject_01/Session_02/Exp_data/2020_Jul_13_1744/rec_QA_run_01_block_000_trial_010.wav,01,02,English,A2,True,False,True,False,False,True,True,True,True,True,True,True,No,1,No,No,No,No,2020_Jul_13_1744,nibs_stage_1,3.2.3,59.99525107780508,
1,0,1,0,0,0,0,0,11,0,11,0,,,,,,,,,,,,,,,,,,,,,,,,,Listen to the question and speak out your answer!,792.9189159870148,None,792.9030041694641,794.9019999504089,"Da drüben raucht es, wir sollten die Feuerwehr holen.",raucht,794.3019440174103,None,798.0688018798828,None,809.5025088787079,None,810.9024829864502,811.9026169776917,./data/Subject_01/Session_02/Exp_data/2020_Jul_13_1744/rec_QA_run_01_block_000_trial_011.wav,01,02,English,A2,True,False,True,False,False,True,True,True,True,True,True,True,No,1,No,No,No,No,2020_Jul_13_1744,nibs_stage_1,3.2.3,59.99525107780508,
1,0,1,0,0,0,0,0,12,0,12,0,,,,,,,,,,,,,,,,,,,,,,,,,Listen to the question and speak out your answer!,813.9533970355988,None,813.9371991157532,815.9528429508209,"Sein Kommentar ist immer so vage, dass niemand weiß, was er meint.",meint,815.3193938732147,None,819.9363868236542,820.9364080429077,830.5201799869537,None,831.9203810691833,832.9203100204468,./data/Subject_01/Session_02/Exp_data/2020_Jul_13_1744/rec_QA_run_01_block_000_trial_012.wav,01,02,English,A2,True,False,True,False,False,True,True,True,True,True,True,True,No,1,No,No,No,No,2020_Jul_13_1744,nibs_stage_1,3.2.3,59.99525107780508,
1,0,1,0,0,0,0,0,13,0,13,0,,,,,,,,,,,,,,,,,,,,,,,,,Listen to the question and speak out your answer!,834.9877350330353,None,834.971654176712,836.9872510433197,Die Mieter wollen die Vertragsbedingungen ändern.,ändern,836.3539049625397,None,839.4540638923645,None,851.5549218654633,None,852.9551839828491,853.9547190666199,./data/Subject_01/Session_02/Exp_data/2020_Jul_13_1744/rec_QA_run_01_block_000_trial_013.wav,01,02,English,A2,True,False,True,False,False,True,True,True,True,True,True,True,No,1,No,No,No,No,2020_Jul_13_1744,nibs_stage_1,3.2.3,59.99525107780508,
1,0,1,0,0,0,0,0,14,0,14,0,,,,,,,,,,,,,,,,,,,,,,,,,Listen to the question and speak out your answer!,856.0222389698029,None,856.0061502456665,858.0217010974884,"Eric ist ein guter Fahrer, obwohl er gerade erst seinen Führerschein gemacht hat.",gemacht,857.3882739543915,None,862.6552679538727,None,872.5891180038452,873.5891630649567,873.9892590045929,874.9891800880432,./data/Subject_01/Session_02/Exp_data/2020_Jul_13_1744/rec_QA_run_01_block_000_trial_014.wav,01,02,English,A2,True,False,True,False,False,True,True,True,True,True,True,True,No,1,No,No,No,No,2020_Jul_13_1744,nibs_stage_1,3.2.3,59.99525107780508,
1,0,1,0,0,0,0,0,15,0,15,0,,,,,,,,,,,,,,,,,,,,,,,,,Listen to the question and speak out your answer!,877.0893859863281,None,877.0739669799805,879.0895841121674,"Ich benutze mein Handy, um Textnachrichten zu senden.",senden,878.4727849960327,881.9729430675507,882.3897819519043,883.3898088932037,893.6736860275269,None,895.0738639831543,896.0739049911499,./data/Subject_01/Session_02/Exp_data/2020_Jul_13_1744/rec_QA_run_01_block_000_trial_015.wav,01,02,English,A2,True,False,True,False,False,True,True,True,True,True,True,True,No,1,No,No,No,No,2020_Jul_13_1744,nibs_stage_1,3.2.3,59.99525107780508,
1,0,1,0,0,0,0,0,16,0,16,0,,,,,,,,,,,,,,,,,,,,,,,,,Listen to the question and speak out your answer!,898.1243510246277,None,898.1084871292114,900.1239008903503,"Ich habe das Formular ausgefüllt, um mich für den Kurs anzumelden.",ausgefüllt,899.5072429180145,None,904.0079779624939,None,914.708014011383,None,916.1079850196838,None,./data/Subject_01/Session_02/Exp_data/2020_Jul_13_1744/rec_QA_run_01_block_000_trial_016.wav,01,02,English,A2,True,False,True,False,False,True,True,True,True,True,True,True,No,1,No,No,No,No,2020_Jul_13_1744,nibs_stage_1,3.2.3,59.99525107780508,
1,0,1,0,0,0,0,0,17,0,17,0,,,,,,,,,,,,,,,,,,,,,,,,,Listen to the question and speak out your answer!,919.1582009792328,None,919.1430561542511,921.1583669185638,"Ein Flüchtling ist jemand , der aus Not seine Heimat verlässt.",verlässt,920.5249450206757,None,924.5420179367065,925.5419390201569,935.725713968277,936.725790977478,937.125853061676,938.1259870529175,./data/Subject_01/Session_02/Exp_data/2020_Jul_13_1744/rec_QA_run_01_block_000_trial_017.wav,01,02,English,A2,True,False,True,False,False,True,True,True,True,True,True,True,No,1,No,No,No,No,2020_Jul_13_1744,nibs_stage_1,3.2.3,59.99525107780508,
1,0,1,0,0,0,0,0,18,0,18,0,,,,,,,,,,,,,,,,,,,,,,,,,Listen to the question and speak out your answer!,940.1935350894928,None,940.1772072315216,942.1763110160828,Bananen wachsen auf Palmen.,wachsen,941.5764698982239,None,944.009724855423,945.0097858905792,956.7770729064941,None,958.1773340702057,959.1771929264069,./data/Subject_01/Session_02/Exp_data/2020_Jul_13_1744/rec_QA_run_01_block_000_trial_018.wav,01,02,English,A2,True,False,True,False,False,True,True,True,True,True,True,True,No,1,No,No,No,No,2020_Jul_13_1744,nibs_stage_1,3.2.3,59.99525107780508,
1,0,1,0,0,0,0,0,19,0,19,0,,,,,,,,,,,,,,,,,,,,,,,,,Listen to the question and speak out your answer!,961.2438220977783,None,961.2117750644684,963.2438399791718,Der Regenbogen besteht aus vielen Farben.,besteht,962.6271638870239,None,965.6940758228302,966.7106990814209,977.8279428482056,None,979.2447090148926,None,./data/Subject_01/Session_02/Exp_data/2020_Jul_13_1744/rec_QA_run_01_block_000_trial_019.wav,01,02,English,A2,True,False,True,False,False,True,True,True,True,True,True,True,No,1,No,No,No,No,2020_Jul_13_1744,nibs_stage_1,3.2.3,59.99525107780508,
1,0,1,0,0,0,0,0,20,0,20,0,,,,,,,,,,,,,,,,,,,,,,,,,Listen to the question and speak out your answer!,982.2782440185547,None,982.2459630966187,984.2782700061798,"Das Buch war witzig, ich habe stundenlang gelacht.",gelacht,983.6615588665009,986.678416967392,987.0618698596954,None,998.8623659610748,999.8790819644928,1000.2790999412537,None,./data/Subject_01/Session_02/Exp_data/2020_Jul_13_1744/rec_QA_run_01_block_000_trial_020.wav,01,02,English,A2,True,False,True,False,False,True,True,True,True,True,True,True,No,1,No,No,No,No,2020_Jul_13_1744,nibs_stage_1,3.2.3,59.99525107780508,
1,0,1,0,0,0,0,0,21,0,21,0,,,,,,,,,,,,,,,,,,,,,,,,,Listen to the question and speak out your answer!,1003.2962689399719,None,1003.2803862094879,1005.3293550014496,Du kannst auf meine Unterstützung rechnen.,rechnen,1004.6793429851532,1007.063187122345,1007.4461498260498,None,1019.8801460266113,None,1021.296863079071,None,./data/Subject_01/Session_02/Exp_data/2020_Jul_13_1744/rec_QA_run_01_block_000_trial_021.wav,01,02,English,A2,True,False,True,False,False,True,True,True,True,True,True,True,No,1,No,No,No,No,2020_Jul_13_1744,nibs_stage_1,3.2.3,59.99525107780508,
1,0,1,0,0,0,0,0,22,0,22,0,,,,,,,,,,,,,,,,,,,,,,,,,Listen to the question and speak out your answer!,1024.363706111908,None,1024.3315012454987,1026.3637969493866,Sie kümmert sich nur um ihre eigenen Angelegenheiten.,kümmert,1025.7471117973328,None,1029.3472969532013,1030.3640639781952,1040.947961807251,1041.9646000862122,1042.364639043808,None,./data/Subject_01/Session_02/Exp_data/2020_Jul_13_1744/rec_QA_run_01_block_000_trial_022.wav,01,02,English,A2,True,False,True,False,False,True,True,True,True,True,True,True,No,1,No,No,No,No,2020_Jul_13_1744,nibs_stage_1,3.2.3,59.99525107780508,
1,0,1,0,0,0,0,0,23,0,23,0,,,,,,,,,,,,,,,,,,,,,,,,,Listen to the question and speak out your answer!,1045.3986959457397,None,1045.366191148758,1047.3981380462646,Der Arbeiter repariert eine Panne.,repariert,1046.7815618515015,1049.0983018875122,1049.4816529750824,1050.4984600543976,1061.9823257923126,None,1063.3990960121155,None,./data/Subject_01/Session_02/Exp_data/2020_Jul_13_1744/rec_QA_run_01_block_000_trial_023.wav,01,02,English,A2,True,False,True,False,False,True,True,True,True,True,True,True,No,1,No,No,No,No,2020_Jul_13_1744,nibs_stage_1,3.2.3,59.99525107780508,
1,0,1,0,0,0,0,0,24,0,24,0,,,,,,,,,,,,,,,,,,,,,,,,,Listen to the question and speak out your answer!,1066.4160089492798,None,1066.3836641311646,1068.4159951210022,Wir leben alle auf der Erde.,leben,1067.7659618854523,None,1070.0327467918396,None,1082.9667489528656,None,1084.3834900856018,None,./data/Subject_01/Session_02/Exp_data/2020_Jul_13_1744/rec_QA_run_01_block_000_trial_024.wav,01,02,English,A2,True,False,True,False,False,True,True,True,True,True,True,True,No,1,No,No,No,No,2020_Jul_13_1744,nibs_stage_1,3.2.3,59.99525107780508,
1,0,1,0,0,0,0,0,,,,,,,,,,,,,,,,,,1088.4336910247803,None,,,,,,,,,,,,,,,,,,,,,,,,,,01,02,English,A2,True,False,True,False,False,True,True,True,True,True,True,True,No,1,No,No,No,No,2020_Jul_13_1744,nibs_stage_1,3.2.3,59.99525107780508,
1,0,1,0,1,0,1,0,0,0,0,0,,,,,,,,,,,,,,,,,,,,,,,,,Listen to the question and speak out your answer!,1107.034758090973,None,1107.003038406372,1109.0347790718079,Antragsteller für ein Visum können online ein Formular ausfüllen.,ausfüllen,1108.3847389221191,1112.2682869434357,1112.6516330242157,None,1123.5855269432068,None,1125.0021760463715,None,./data/Subject_01/Session_02/Exp_data/2020_Jul_13_1744/rec_QA_run_01_block_001_trial_000.wav,01,02,English,A2,True,False,True,False,False,True,True,True,True,True,True,True,No,1,No,No,No,No,2020_Jul_13_1744,nibs_stage_1,3.2.3,59.99525107780508,
1,0,1,0,1,0,1,0,1,0,1,0,,,,,,,,,,,,,,,,,,,,,,,,,Listen to the question and speak out your answer!,1128.06964802742,None,1128.0368790626526,1130.06920003891,Wir haben den Empfang der Sendung bestätigt.,bestätigt,1129.4191708564758,None,1132.3526628017426,None,1144.6200878620148,1145.6367390155792,1146.0367460250854,None,./data/Subject_01/Session_02/Exp_data/2020_Jul_13_1744/rec_QA_run_01_block_001_trial_001.wav,01,02,English,A2,True,False,True,False,False,True,True,True,True,True,True,True,No,1,No,No,No,No,2020_Jul_13_1744,nibs_stage_1,3.2.3,59.99525107780508,
1,0,1,0,1,0,1,0,2,0,2,0,,,,,,,,,,,,,,,,,,,,,,,,,Listen to the question and speak out your answer!,1149.120803117752,None,1149.088035106659,1151.1203429698944,Das Abendessen wird pünktlich um 12 Uhr auf den Tisch stehen.,stehen,1150.4702668190002,None,1154.6038060188293,None,1165.6713218688965,None,1167.0877420902252,None,./data/Subject_01/Session_02/Exp_data/2020_Jul_13_1744/rec_QA_run_01_block_001_trial_002.wav,01,02,English,A2,True,False,True,False,False,True,True,True,True,True,True,True,No,1,No,No,No,No,2020_Jul_13_1744,nibs_stage_1,3.2.3,59.99525107780508,
1,0,1,0,1,0,1,0,3,0,3,0,,,,,,,,,,,,,,,,,,,,,,,,,Listen to the question and speak out your answer!,1170.1558361053467,None,1170.1391241550446,1172.187968969345,"Um den Sachverhalt zu erklären, fehlten ihm die treffenden Vokabeln.",erklären,1171.5379638671875,1175.7548940181732,1176.1049208641052,None,1186.7388458251953,None,1188.155457019806,None,./data/Subject_01/Session_02/Exp_data/2020_Jul_13_1744/rec_QA_run_01_block_001_trial_003.wav,01,02,English,A2,True,False,True,False,False,True,True,True,True,True,True,True,No,1,No,No,No,No,2020_Jul_13_1744,nibs_stage_1,3.2.3,59.99525107780508,
1,0,1,0,1,0,1,0,4,0,4,0,,,,,,,,,,,,,,,,,,,,,,,,,Listen to the question and speak out your answer!,1191.2223958969116,None,1191.190262079239,1193.2224860191345,Meine Oma hat mir Frühstück gekocht.,gekocht,1192.5724890232086,None,1195.2059128284454,None,1207.7898898124695,None,1209.2066431045532,None,./data/Subject_01/Session_02/Exp_data/2020_Jul_13_1744/rec_QA_run_01_block_001_trial_004.wav,01,02,English,A2,True,False,True,False,False,True,True,True,True,True,True,True,No,1,No,No,No,No,2020_Jul_13_1744,nibs_stage_1,3.2.3,59.99525107780508,
1,0,1,0,1,0,1,0,5,0,5,0,,,,,,,,,,,,,,,,,,,,,,,,,Listen to the question and speak out your answer!,1212.2736349105835,None,1212.241324186325,1214.273577928543,Ich habe meine Lederschuhe mit einem Lappen geputzt.,geputzt,1213.623540878296,None,1216.9904749393463,1218.0070850849152,1228.8242349624634,None,1230.2410960197449,None,./data/Subject_01/Session_02/Exp_data/2020_Jul_13_1744/rec_QA_run_01_block_001_trial_005.wav,01,02,English,A2,True,False,True,False,False,True,True,True,True,True,True,True,No,1,No,No,No,No,2020_Jul_13_1744,nibs_stage_1,3.2.3,59.99525107780508,
1,0,1,0,1,0,1,0,6,0,6,0,,,,,,,,,,,,,,,,,,,,,,,,,Listen to the question and speak out your answer!,1233.3085639476776,None,1233.2756731510162,1235.3079891204834,Wie feiern die Deutschen Weihnachten?,feiern,1234.6579649448395,1236.8414080142975,1237.2581098079681,None,1249.8587608337402,None,1251.2755250930786,None,./data/Subject_01/Session_02/Exp_data/2020_Jul_13_1744/rec_QA_run_01_block_001_trial_006.wav,01,02,English,A2,True,False,True,False,False,True,True,True,True,True,True,True,No,1,No,No,No,No,2020_Jul_13_1744,nibs_stage_1,3.2.3,59.99525107780508,
1,0,1,0,1,0,1,0,7,0,7,0,,,,,,,,,,,,,,,,,,,,,,,,,Listen to the question and speak out your answer!,1254.3425109386444,None,1254.3103392124176,1256.3424260616302,Sie fühlt sich während der Quarantäne sehr langweilig.,fühlt,1255.6923959255219,None,1259.3925938606262,1260.4093759059906,1270.8931767940521,None,1272.3099129199982,None,./data/Subject_01/Session_02/Exp_data/2020_Jul_13_1744/rec_QA_run_01_block_001_trial_007.wav,01,02,English,A2,True,False,True,False,False,True,True,True,True,True,True,True,No,1,No,No,No,No,2020_Jul_13_1744,nibs_stage_1,3.2.3,59.99525107780508,
1,0,1,0,1,0,1,0,8,0,8,0,,,,,,,,,,,,,,,,,,,,,,,,,Listen to the question and speak out your answer!,1275.3774139881134,None,1275.3445341587067,1277.3769509792328,Paul hat zum Abendessen Kartoffelsuppe gegessen.,gegessen,1276.726821899414,1279.7436990737915,1280.160387992859,None,1291.9276189804077,None,1293.3443250656128,None,./data/Subject_01/Session_02/Exp_data/2020_Jul_13_1744/rec_QA_run_01_block_001_trial_008.wav,01,02,English,A2,True,False,True,False,False,True,True,True,True,True,True,True,No,1,No,No,No,No,2020_Jul_13_1744,nibs_stage_1,3.2.3,59.99525107780508,
1,0,1,0,1,0,1,0,9,0,9,0,,,,,,,,,,,,,,,,,,,,,,,,,Listen to the question and speak out your answer!,1296.411197900772,None,1296.378986120224,1298.4112510681152,Der Zahnarzt untersuchte meine Zunge genau.,untersuchte,1297.7945799827576,1300.6780500411987,1301.0614528656006,None,1312.9954509735107,None,1314.4120950698853,None,./data/Subject_01/Session_02/Exp_data/2020_Jul_13_1744/rec_QA_run_01_block_001_trial_009.wav,01,02,English,A2,True,False,True,False,False,True,True,True,True,True,True,True,No,1,No,No,No,No,2020_Jul_13_1744,nibs_stage_1,3.2.3,59.99525107780508,
1,0,1,0,1,0,1,0,10,0,10,0,,,,,,,,,,,,,,,,,,,,,,,,,Listen to the question and speak out your answer!,1317.4457321166992,None,1317.4134321212769,1319.445688009262,"Solange es regnet, bleiben wir hier.",bleiben,1318.8290238380432,None,1321.4958930015564,1322.5125250816345,1334.0298449993134,None,1335.446536064148,None,./data/Subject_01/Session_02/Exp_data/2020_Jul_13_1744/rec_QA_run_01_block_001_trial_010.wav,01,02,English,A2,True,False,True,False,False,True,True,True,True,True,True,True,No,1,No,No,No,No,2020_Jul_13_1744,nibs_stage_1,3.2.3,59.99525107780508,
1,0,1,0,1,0,1,0,11,0,11,0,,,,,,,,,,,,,,,,,,,,,,,,,Listen to the question and speak out your answer!,1338.4807090759277,None,1338.4478342533112,1340.4800300598145,Das laute Auto meines Nachbarn stört mich jeden Tag.,stört,1339.8301088809967,None,1343.730329990387,None,1355.0308828353882,None,1356.4476189613342,None,./data/Subject_01/Session_02/Exp_data/2020_Jul_13_1744/rec_QA_run_01_block_001_trial_011.wav,01,02,English,A2,True,False,True,False,False,True,True,True,True,True,True,True,No,1,No,No,No,No,2020_Jul_13_1744,nibs_stage_1,3.2.3,59.99525107780508,
1,0,1,0,1,0,1,0,12,0,12,0,,,,,,,,,,,,,,,,,,,,,,,,,Listen to the question and speak out your answer!,1359.5166981220245,None,1359.4989280700684,1361.5478720664978,Während meines Urlaubs werde ich nach China und Japan reisen.,reisen,1360.8981478214264,None,1365.031418800354,1366.0481219291687,1376.0986478328705,None,1377.515587091446,None,./data/Subject_01/Session_02/Exp_data/2020_Jul_13_1744/rec_QA_run_01_block_001_trial_012.wav,01,02,English,A2,True,False,True,False,False,True,True,True,True,True,True,True,No,1,No,No,No,No,2020_Jul_13_1744,nibs_stage_1,3.2.3,59.99525107780508,
1,0,1,0,1,0,1,0,13,0,13,0,,,,,,,,,,,,,,,,,,,,,,,,,Listen to the question and speak out your answer!,1380.5828769207,None,1380.5500230789185,1382.5823330879211,"Am Ostersonntag suchen die Kinder bunte Eier, die ihre Eltern verstecken.",verstecken,1381.9323308467865,None,1386.8326108455658,None,1397.1330988407135,None,1398.549833059311,None,./data/Subject_01/Session_02/Exp_data/2020_Jul_13_1744/rec_QA_run_01_block_001_trial_013.wav,01,02,English,A2,True,False,True,False,False,True,True,True,True,True,True,True,No,1,No,No,No,No,2020_Jul_13_1744,nibs_stage_1,3.2.3,59.99525107780508,
1,0,1,0,1,0,1,0,14,0,14,0,,,,,,,,,,,,,,,,,,,,,,,,,Listen to the question and speak out your answer!,1401.6173069477081,None,1401.5845861434937,1403.616728067398,"Mein Handy ist schon eingeschaltet, so dass Sie mich jederzeit anrufen können.",anrufen,1403.000028848648,None,1407.966989994049,1408.9837069511414,1418.2011349201202,1419.2176549434662,1419.6176269054413,None,./data/Subject_01/Session_02/Exp_data/2020_Jul_13_1744/rec_QA_run_01_block_001_trial_014.wav,01,02,English,A2,True,False,True,False,False,True,True,True,True,True,True,True,No,1,No,No,No,No,2020_Jul_13_1744,nibs_stage_1,3.2.3,59.99525107780508,
1,0,1,0,1,0,1,0,15,0,15,0,,,,,,,,,,,,,,,,,,,,,,,,,Listen to the question and speak out your answer!,1422.6513891220093,None,1422.6355819702148,1424.6844999790192,"Die ausgehende Post muss noch eintragen werden, da sie strenge Datenschutzrichtlinien haben.",eintragen,1424.0344908237457,None,1430.0347838401794,1431.0515348911285,1439.2352588176727,None,1440.6520171165466,None,./data/Subject_01/Session_02/Exp_data/2020_Jul_13_1744/rec_QA_run_01_block_001_trial_015.wav,01,02,English,A2,True,False,True,False,False,True,True,True,True,True,True,True,No,1,No,No,No,No,2020_Jul_13_1744,nibs_stage_1,3.2.3,59.99525107780508,
1,0,1,0,1,0,1,0,16,0,16,0,,,,,,,,,,,,,,,,,,,,,,,,,Listen to the question and speak out your answer!,1443.6861441135406,None,1443.6534230709076,1445.6855819225311,"Die Fische leben in Flüssen , Seen und Meeren.",leben,1445.0691978931427,None,1448.7024359703064,None,1460.2697939872742,None,1461.6864249706268,None,./data/Subject_01/Session_02/Exp_data/2020_Jul_13_1744/rec_QA_run_01_block_001_trial_016.wav,01,02,English,A2,True,False,True,False,False,True,True,True,True,True,True,True,No,1,No,No,No,No,2020_Jul_13_1744,nibs_stage_1,3.2.3,59.99525107780508,
1,0,1,0,1,0,1,0,17,0,17,0,,,,,,,,,,,,,,,,,,,,,,,,,Listen to the question and speak out your answer!,1464.7047379016876,None,1464.6877162456512,1466.7367889881134,"Ich kann prüfen, ob wir diese Hose auf Lager haben.",prüfen,1466.0865769386292,1469.3033928871155,1469.686842918396,None,1481.287449836731,None,1482.7041120529175,None,./data/Subject_01/Session_02/Exp_data/2020_Jul_13_1744/rec_QA_run_01_block_001_trial_017.wav,01,02,English,A2,True,False,True,False,False,True,True,True,True,True,True,True,No,1,No,No,No,No,2020_Jul_13_1744,nibs_stage_1,3.2.3,59.99525107780508,
1,0,1,0,1,0,1,0,18,0,18,0,,,,,,,,,,,,,,,,,,,,,,,,,Listen to the question and speak out your answer!,1485.7715759277344,None,1485.7388501167297,1487.771106004715,Die Reparaturen werden ungefähr drei Stunden dauern.,dauern,1487.154368877411,None,1490.8546059131622,None,1502.3552169799805,None,1503.7719359397888,None,./data/Subject_01/Session_02/Exp_data/2020_Jul_13_1744/rec_QA_run_01_block_001_trial_018.wav,01,02,English,A2,True,False,True,False,False,True,True,True,True,True,True,True,No,1,No,No,No,No,2020_Jul_13_1744,nibs_stage_1,3.2.3,59.99525107780508,
1,0,1,0,1,0,1,0,19,0,19,0,,,,,,,,,,,,,,,,,,,,,,,,,Listen to the question and speak out your answer!,1506.8063299655914,None,1506.773255109787,1508.805589914322,Was bedeutet diese Abkürzung?,bedeutet,1508.1888589859009,None,1510.5889918804169,1511.6057329177856,1523.372987985611,None,1524.7898020744324,None,./data/Subject_01/Session_02/Exp_data/2020_Jul_13_1744/rec_QA_run_01_block_001_trial_019.wav,01,02,English,A2,True,False,True,False,False,True,True,True,True,True,True,True,No,1,No,No,No,No,2020_Jul_13_1744,nibs_stage_1,3.2.3,59.99525107780508,
1,0,1,0,1,0,1,0,20,0,20,0,,,,,,,,,,,,,,,,,,,,,,,,,Listen to the question and speak out your answer!,1527.8583300113678,None,1527.8410069942474,1529.8899590969086,Das Radio informiert Autofahrer über Staus.,informiert,1529.2400829792023,None,1532.7401478290558,None,1544.4407229423523,None,1545.8574390411377,None,./data/Subject_01/Session_02/Exp_data/2020_Jul_13_1744/rec_QA_run_01_block_001_trial_020.wav,01,02,English,A2,True,False,True,False,False,True,True,True,True,True,True,True,No,1,No,No,No,No,2020_Jul_13_1744,nibs_stage_1,3.2.3,59.99525107780508,
1,0,1,0,1,0,1,0,21,0,21,0,,,,,,,,,,,,,,,,,,,,,,,,,Listen to the question and speak out your answer!,1548.9263970851898,None,1548.8921101093292,1550.9243919849396,Der Junge hat das Mädchen zum Kaffee eingeladen.,eingeladen,1550.3076980113983,None,1553.5745539665222,None,1565.508497953415,None,1566.9254100322723,None,./data/Subject_01/Session_02/Exp_data/2020_Jul_13_1744/rec_QA_run_01_block_001_trial_021.wav,01,02,English,A2,True,False,True,False,False,True,True,True,True,True,True,True,No,1,No,No,No,No,2020_Jul_13_1744,nibs_stage_1,3.2.3,59.99525107780508,
1,0,1,0,1,0,1,0,22,0,22,0,,,,,,,,,,,,,,,,,,,,,,,,,Listen to the question and speak out your answer!,1569.9428539276123,None,1569.926547050476,1571.9754889011383,"Ihm ist jedes Mittel recht, um sein Ziel zu erreichen.",erreichen,1571.3255689144135,None,1574.9923248291016,None,1586.4928948879242,None,1587.9097061157227,1588.9430310726166,./data/Subject_01/Session_02/Exp_data/2020_Jul_13_1744/rec_QA_run_01_block_001_trial_022.wav,01,02,English,A2,True,False,True,False,False,True,True,True,True,True,True,True,No,1,No,No,No,No,2020_Jul_13_1744,nibs_stage_1,3.2.3,59.99525107780508,
1,0,1,0,1,0,1,0,23,0,23,0,,,,,,,,,,,,,,,,,,,,,,,,,Listen to the question and speak out your answer!,1591.011344909668,None,1590.977613210678,1593.0099129676819,"Wenn der Vulkan aktiv ist, wird Lava herausfließen.",herausfließen,1592.393222808838,None,1596.4268128871918,1597.4440469741821,1607.5940148830414,1608.6107249259949,1609.0107469558716,None,./data/Subject_01/Session_02/Exp_data/2020_Jul_13_1744/rec_QA_run_01_block_001_trial_023.wav,01,02,English,A2,True,False,True,False,False,True,True,True,True,True,True,True,No,1,No,No,No,No,2020_Jul_13_1744,nibs_stage_1,3.2.3,59.99525107780508,
1,0,1,0,1,0,1,0,24,0,24,0,,,,,,,,,,,,,,,,,,,,,,,,,Listen to the question and speak out your answer!,1612.0445148944855,None,1612.0287280082703,1614.0776660442352,"Entschuldigung, können Sie mir ein Taxi rufen?",rufen,1613.4276478290558,1616.2112340927124,1616.594477891922,1617.6113250255585,1628.6118068695068,1629.6285619735718,1630.0284469127655,None,./data/Subject_01/Session_02/Exp_data/2020_Jul_13_1744/rec_QA_run_01_block_001_trial_024.wav,01,02,English,A2,True,False,True,False,False,True,True,True,True,True,True,True,No,1,No,No,No,No,2020_Jul_13_1744,nibs_stage_1,3.2.3,59.99525107780508,
