run.thisRepN,run.thisTrialN,run.thisN,run.thisIndex,artifact_trial.thisRepN,artifact_trial.thisTrialN,artifact_trial.thisN,artifact_trial.thisIndex,QA_block.thisRepN,QA_block.thisTrialN,QA_block.thisN,QA_block.thisIndex,QA_trial.thisRepN,QA_trial.thisTrialN,QA_trial.thisN,QA_trial.thisIndex,fade_in_text.text,fade_in_text.started,fade_in_text.stopped,Artifact_intro_title.started,Artifact_intro_title.stopped,Artifact_intro_text.text,Artifact_intro_text.started,Artifact_intro_text.stopped,Artifact_intro_audio.started,Artifact_intro_audio.stopped,Artifact_intro_cont.started,Artifact_intro_cont.stopped,Artifact_rec_text.text,Artifact_rec_text.started,Artifact_rec_text.stopped,Artifact_rec_beep_hint.started,Artifact_rec_beep_hint.stopped,Artifact_rec_action.started,Artifact_rec_action.stopped,Artifact_rec_beep_start.started,Artifact_rec_beep_start.stopped,Artifact_rec_recording.started,Artifact_rec_recording.stopped,Artifact_rec_beep_end.started,Artifact_rec_beep_end.stopped,Artifact_rec_break.started,Artifact_rec_break.stopped,RS_intro_title.started,RS_intro_title.stopped,RS_intro_text.text,RS_intro_text.started,RS_intro_text.stopped,RS_intro_audio.started,RS_intro_audio.stopped,RS_rec_text.text,RS_rec_text.started,RS_rec_text.stopped,Pause_cont.started,Pause_cont.stopped,QA_intro_title.started,QA_intro_title.stopped,QA_intro_text.text,QA_intro_text.started,QA_intro_text.stopped,QA_intro_audio.started,QA_intro_audio.stopped,QA_intro_cont.started,QA_intro_cont.stopped,QA_rec_text.text,QA_rec_text.started,QA_rec_text.stopped,QA_rec_beep_hint.started,QA_rec_beep_hint.stopped,QA_rec_question.sen_text,QA_rec_question.cen_text,QA_rec_question.started,QA_rec_question.stopped,QA_rec_beep_start.started,QA_rec_beep_start.stopped,QA_rec_beep_end.started,QA_rec_beep_end.stopped,QA_rec_break.started,QA_rec_break.stopped,filename,participant,session,First language,German level,Full_screen,Instruction,Intro,Artifact,Cali_pre,Fade_in_out,Artifact_within,Resting_State,QA,Pause,Cali_post,End,Breakpoint_Cali_pre_trial,Breakpoint_Run,Breakpoint_RS_block,Breakpoint_QA_block,Breakpoint_QA_trial,Breakpoint_Cali_post_trial,date,expName,psychopyVersion,frameRate,
2,0,2,0,0,0,0,0,,,,,,,,,Please remain seated until further instruction via the earphone.,150.33532905578613,None,152.36888003349304,None,"  - Task: Artifacts collection   
  - Please follow audio instruction              
",152.36888003349304,None,152.351105260849,None,178.73682808876038,None,,181.13698410987854,None,181.11905937194825,183.1205871105194,182.50369839668275,None,185.90386347770692,None,187.30391149520875,197.3044421672821,197.7044623374939,None,199.1045401096344,200.10458612442017,,,,,,,,,,,,,,,,,,,,,,,,,,,,,,,,,,,,,,01,02,English,A2,True,False,True,False,False,True,True,True,True,True,True,True,No,2,No,No,No,No,2020_Jul_13_1825,nibs_stage_1,3.2.3,59.964287092886444,
2,0,2,0,1,0,1,0,,,,,,,,,,,,,,,,,,,,,,203.15553903579712,None,203.13701634407045,205.13811206817627,204.52164130210878,None,207.92167930603028,None,209.32174639701844,219.32227897644043,219.72220449447633,220.72234320640564,221.12237215042114,222.12260818481445,,,,,,,,,,,,,,,,,,,,,,,,,,,,,,,,,,,,,,01,02,English,A2,True,False,True,False,False,True,True,True,True,True,True,True,No,2,No,No,No,No,2020_Jul_13_1825,nibs_stage_1,3.2.3,59.964287092886444,
2,0,2,0,2,0,2,0,,,,,,,,,,,,,,,,,,,,,,225.1732301712036,None,225.1549132347107,227.1557970046997,226.53918437957765,None,229.9391763687134,None,231.3393273830414,241.3398780822754,241.7399814605713,None,243.1399631500244,244.14004707336426,,,,,,,,,,,,,,,,,,,,,,,,,,,,,,,,,,,,,,01,02,English,A2,True,False,True,False,False,True,True,True,True,True,True,True,No,2,No,No,No,No,2020_Jul_13_1825,nibs_stage_1,3.2.3,59.964287092886444,
2,0,2,0,3,0,3,0,,,,,,,,,,,,,,,,,,,,,,247.19077610969543,None,247.17251830101014,249.17371916770935,248.55689029693605,None,251.95706443786622,None,253.35715250968934,263.357871055603,263.7577784538269,264.7577431201935,265.1577591896057,266.15782713890076,,,,,,,,,,,,,,,,,,,,,,,,,,,,,,,,,,,,,,01,02,English,A2,True,False,True,False,False,True,True,True,True,True,True,True,No,2,No,No,No,No,2020_Jul_13_1825,nibs_stage_1,3.2.3,59.964287092886444,
2,0,2,0,4,0,4,0,,,,,,,,,,,,,,,,,,,,,,269.20812606811523,None,269.1905532360077,271.1913990974426,270.57470445632936,None,273.97498230934144,None,275.3749604701996,285.37547612190247,285.77539949417115,286.7755570411682,287.1755750179291,288.175644159317,,,,,,,,,,,,,,,,,,,,,,,,,,,,,,,,,,,,,,01,02,English,A2,True,False,True,False,False,True,True,True,True,True,True,True,No,2,No,No,No,No,2020_Jul_13_1825,nibs_stage_1,3.2.3,59.964287092886444,
2,0,2,0,5,0,5,0,,,,,,,,,,,,,,,,,,,,,,291.22585916519165,None,291.20816831588746,293.2092430591583,292.5925274372101,None,295.99276928901674,None,297.3927634239197,307.39344120025635,307.79428629875184,308.79327416419983,309.1933810710907,310.19346618652344,,,,,,,,,,,,,,,,,,,,,,,,,,,,,,,,,,,,,,01,02,English,A2,True,False,True,False,False,True,True,True,True,True,True,True,No,2,No,No,No,No,2020_Jul_13_1825,nibs_stage_1,3.2.3,59.964287092886444,
2,0,2,0,6,0,6,0,,,,,,,,,,,,,,,,,,,,,,313.24370098114014,None,313.2259421825409,315.2270460128784,314.6103954792023,None,318.0106285095215,None,319.4108093261719,329.4114730358124,329.81148343086244,330.8114540576935,331.21147298812866,332.21150398254395,,,,,,,,,,,,,,,,,,,,,,,,,,,,,,,,,,,,,,01,02,English,A2,True,False,True,False,False,True,True,True,True,True,True,True,No,2,No,No,No,No,2020_Jul_13_1825,nibs_stage_1,3.2.3,59.964287092886444,
2,0,2,0,7,0,7,0,,,,,,,,,,,,,,,,,,,,,,335.26165103912354,None,335.2439332485199,337.2450580596924,336.62835841178895,339.6285150051117,340.02852635383607,341.0286011695862,341.4286554336548,351.42906308174133,351.83004050254823,352.82920002937317,353.22924304008484,354.2292990684509,,,,,,,,,,,,,,,,,,,,,,,,,,,,,,,,,,,,,,01,02,English,A2,True,False,True,False,False,True,True,True,True,True,True,True,No,2,No,No,No,No,2020_Jul_13_1825,nibs_stage_1,3.2.3,59.964287092886444,
2,0,2,0,8,0,8,0,,,,,,,,,,,,,,,,,,,,,,357.27947211265564,None,357.26173930168153,359.2628240585327,358.6462374210358,361.6463680267334,362.04636149406434,None,363.4465563774109,373.4471220970154,373.8469903945923,None,375.2470669746399,376.24711203575134,,,,,,,,,,,,,,,,,,,,,,,,,,,,,,,,,,,,,,01,02,English,A2,True,False,True,False,False,True,True,True,True,True,True,True,No,2,No,No,No,No,2020_Jul_13_1825,nibs_stage_1,3.2.3,59.964287092886444,
2,0,2,0,9,0,9,0,,,,,,,,,,,,,,,,,,,,,,379.29729104042053,None,379.27977018356324,381.28072714805603,380.6640353679657,383.66413497924805,384.064119386673,None,385.4642303466797,395.464781999588,395.8647943019867,None,397.2648642063141,398.2650101184845,,,,,,,,,,,,,,,,,,,,,,,,,,,,,,,,,,,,,,01,02,English,A2,True,False,True,False,False,True,True,True,True,True,True,True,No,2,No,No,No,No,2020_Jul_13_1825,nibs_stage_1,3.2.3,59.964287092886444,
2,0,2,0,10,0,10,0,,,,,,,,,,,,,,,,,,,,,,401.3150770664215,None,401.29753427505494,403.29850912094116,402.68180828094484,None,406.0819132804871,None,407.4820743083954,417.48262214660645,417.8827603340149,418.88274812698364,419.28268218040466,420.2827332019806,,,,,,,,,,,,,,,,,,,,,,,,,,,,,,,,,,,,,,01,02,English,A2,True,False,True,False,False,True,True,True,True,True,True,True,No,2,No,No,No,No,2020_Jul_13_1825,nibs_stage_1,3.2.3,59.964287092886444,
2,0,2,0,11,0,11,0,,,,,,,,,,,,,,,,,,,,,,423.332887172699,None,423.3152292251587,425.31641817092896,424.699626493454,None,428.09979848861695,429.09979009628296,429.49978547096254,439.50037813186646,439.90075545310975,None,441.3004491329193,442.3006031513214,,,,,,,,,,,,,,,,,,,,,,,,,,,,,,,,,,,,,,01,02,English,A2,True,False,True,False,False,True,True,True,True,True,True,True,No,2,No,No,No,No,2020_Jul_13_1825,nibs_stage_1,3.2.3,59.964287092886444,
2,0,2,0,12,0,12,0,,,,,,,,,,,,,,,,,,,,,,445.3507261276245,None,445.3330662727356,447.3343770503998,446.7179663658142,449.71753215789795,450.1176193237305,None,451.5177414894104,461.51814699172974,461.9184012889862,None,463.31842017173767,464.3183569908142,,,,,,,,,,,,,,,,,,,,,,,,,,,,,,,,,,,,,,01,02,English,A2,True,False,True,False,False,True,True,True,True,True,True,True,No,2,No,No,No,No,2020_Jul_13_1825,nibs_stage_1,3.2.3,59.964287092886444,
2,0,2,0,13,0,13,0,,,,,,,,,,,,,,,,,,,,,,467.3685390949249,None,467.350772190094,469.3521420955658,468.7352414608002,None,472.13540749549867,None,473.5354874610901,483.5359191894531,483.9363894939423,None,485.33611011505127,486.3361670970917,,,,,,,,,,,,,,,,,,,,,,,,,,,,,,,,,,,,,,01,02,English,A2,True,False,True,False,False,True,True,True,True,True,True,True,No,2,No,No,No,No,2020_Jul_13_1825,nibs_stage_1,3.2.3,59.964287092886444,
2,0,2,0,14,0,14,0,,,,,,,,,,,,,,,,,,,,,,489.3863379955292,None,489.36857919692994,491.3696961402893,490.7530394077301,None,494.15323238372804,None,495.55330233573915,505.55383920669556,505.95390634536744,None,507.3540229797363,508.35395908355713,,,,,,,,,,,,,,,,,,,,,,,,,,,,,,,,,,,,,,01,02,English,A2,True,False,True,False,False,True,True,True,True,True,True,True,No,2,No,No,No,No,2020_Jul_13_1825,nibs_stage_1,3.2.3,59.964287092886444,
2,0,2,0,,,,,0,0,0,0,0,0,0,0,,,,,,,,,,,,,,,,,,,,,,,,,,,,718.8156080245972,None," - Task: Keep seated and relaxed with either      
             opening or closing eyes                  
 - Beep sound with decreasing pitch: Block finish 
",718.8156080245972,None,718.7971776485442,None,"Please keep relaxed and open your eyes.
Note: Blinking is allowed.",741.8493010997772,921.8588399887085,925.2256991863251,None,939.242828130722,None," - Task: Listen to the question& Speak out answer 
 - Melodious beep sound: Trial start              
 - Silent sound (blank): censored word            
 - Beep sound with increasing pitch: Rec. start   
 - Beep sound with decreasing pitch: Rec. finish  
",939.242828130722,None,939.2414189338683,None,978.6448781490326,None,Listen to the question and speak out your answer!,981.7119121551514,None,981.6935314178467,983.6952860355377,"Da Mark gestern sehr spät aufgestanden ist, wird er heute nicht früh aufstehen.",aufstehen,983.0786924839019,987.7289381027222,988.1455603122711,None,998.279382276535,999.2795341014862,999.6795790195465,1000.6796209812164,./data/Subject_01/Session_02/Exp_data/2020_Jul_13_1825/rec_QA_run_02_block_000_trial_000.wav,01,02,English,A2,True,False,True,False,False,True,True,True,True,True,True,True,No,2,No,No,No,No,2020_Jul_13_1825,nibs_stage_1,3.2.3,59.964287092886444,
2,0,2,0,,,,,0,0,0,0,1,0,1,0,,,,,,,,,,,,,,,,,,,,,,,,,,,,,,,,,,,,,,,,,,,,,,,,,Listen to the question and speak out your answer!,1002.7463781833649,None,1002.7285965442657,1004.7297050952911,Auf der Youtube kann man Videos anschauen.,anschauen,1004.1297483921051,1006.6965641975403,1007.0964894771575,None,1019.3137853622436,None,1020.7139620780945,1021.7140161991119,./data/Subject_01/Session_02/Exp_data/2020_Jul_13_1825/rec_QA_run_02_block_000_trial_001.wav,01,02,English,A2,True,False,True,False,False,True,True,True,True,True,True,True,No,2,No,No,No,No,2020_Jul_13_1825,nibs_stage_1,3.2.3,59.964287092886444,
2,0,2,0,,,,,0,0,0,0,2,0,2,0,,,,,,,,,,,,,,,,,,,,,,,,,,,,,,,,,,,,,,,,,,,,,,,,,Listen to the question and speak out your answer!,1023.7976841926575,None,1023.7797059059143,1025.7808830738068,Die alte Zimmerdecke muss man renovieren.,renovieren,1025.1642024993896,1027.6309661865234,1028.0476544380188,None,1040.3649094581604,1041.3649911880493,1041.7651300430298,1042.7653090953827,./data/Subject_01/Session_02/Exp_data/2020_Jul_13_1825/rec_QA_run_02_block_000_trial_002.wav,01,02,English,A2,True,False,True,False,False,True,True,True,True,True,True,True,No,2,No,No,No,No,2020_Jul_13_1825,nibs_stage_1,3.2.3,59.964287092886444,
2,0,2,0,,,,,0,0,0,0,3,0,3,0,,,,,,,,,,,,,,,,,,,,,,,,,,,,,,,,,,,,,,,,,,,,,,,,,Listen to the question and speak out your answer!,1044.8490781784058,None,1044.8307978153227,1046.8319799900055,"Sie müssen mehr bezahlen, es fehlen noch ein paar Cent.",fehlen,1046.2152603149414,1049.5653970241547,1049.9655414104461,None,1061.416193294525,1062.4161450862885,1062.8161580562592,1063.8162121772766,./data/Subject_01/Session_02/Exp_data/2020_Jul_13_1825/rec_QA_run_02_block_000_trial_003.wav,01,02,English,A2,True,False,True,False,False,True,True,True,True,True,True,True,No,2,No,No,No,No,2020_Jul_13_1825,nibs_stage_1,3.2.3,59.964287092886444,
2,0,2,0,,,,,0,0,0,0,4,0,4,0,,,,,,,,,,,,,,,,,,,,,,,,,,,,,,,,,,,,,,,,,,,,,,,,,Listen to the question and speak out your answer!,1065.899700164795,None,1065.881969833374,1067.8830680847168,Die Anlage arbeitet vollautomatisch.,arbeitet,1067.2662854671478,None,1070.1998544216156,1071.1999089717865,1082.467152404785,None,1083.8671531677246,1084.8673150539398,./data/Subject_01/Session_02/Exp_data/2020_Jul_13_1825/rec_QA_run_02_block_000_trial_004.wav,01,02,English,A2,True,False,True,False,False,True,True,True,True,True,True,True,No,2,No,No,No,No,2020_Jul_13_1825,nibs_stage_1,3.2.3,59.964287092886444,
2,0,2,0,,,,,0,0,0,0,5,0,5,0,,,,,,,,,,,,,,,,,,,,,,,,,,,,,,,,,,,,,,,,,,,,,,,,,Listen to the question and speak out your answer!,1086.9343152046204,None,1086.9165106773376,1088.9174790382385,Bitte zahlen Sie an Kasse Nummer Zwei.,zahlen,1088.3174524784088,1090.8176460266113,1091.2175884723663,1092.2176151275635,1103.5182734012603,None,1104.918272972107,1105.934923171997,./data/Subject_01/Session_02/Exp_data/2020_Jul_13_1825/rec_QA_run_02_block_000_trial_005.wav,01,02,English,A2,True,False,True,False,False,True,True,True,True,True,True,True,No,2,No,No,No,No,2020_Jul_13_1825,nibs_stage_1,3.2.3,59.964287092886444,
2,0,2,0,,,,,0,0,0,0,6,0,6,0,,,,,,,,,,,,,,,,,,,,,,,,,,,,,,,,,,,,,,,,,,,,,,,,,Listen to the question and speak out your answer!,1108.0019869804382,None,1107.9840179920195,1109.9852349758148,Die sieben kleinen Äpfel sollen ungefähr zwei Kilo wiegen.,wiegen,1109.368572282791,1113.0187351703644,1113.435407447815,None,1124.569320487976,1125.5692989826202,1125.9693880081177,1126.9694571495056,./data/Subject_01/Session_02/Exp_data/2020_Jul_13_1825/rec_QA_run_02_block_000_trial_006.wav,01,02,English,A2,True,False,True,False,False,True,True,True,True,True,True,True,No,2,No,No,No,No,2020_Jul_13_1825,nibs_stage_1,3.2.3,59.964287092886444,
2,0,2,0,,,,,0,0,0,0,7,0,7,0,,,,,,,,,,,,,,,,,,,,,,,,,,,,,,,,,,,,,,,,,,,,,,,,,Listen to the question and speak out your answer!,1129.036211013794,None,1129.018551969528,1131.019555091858,Muss ich mit dem Bus fahren oder kann ich zu Fuß gehen?,gehen,1130.4027452945709,1133.4696550369263,1133.886341381073,None,1145.6036324977874,None,1147.0036611557007,1148.0036511421204,./data/Subject_01/Session_02/Exp_data/2020_Jul_13_1825/rec_QA_run_02_block_000_trial_007.wav,01,02,English,A2,True,False,True,False,False,True,True,True,True,True,True,True,No,2,No,No,No,No,2020_Jul_13_1825,nibs_stage_1,3.2.3,59.964287092886444,
2,0,2,0,,,,,0,0,0,0,8,0,8,0,,,,,,,,,,,,,,,,,,,,,,,,,,,,,,,,,,,,,,,,,,,,,,,,,Listen to the question and speak out your answer!,1150.0705330371857,None,1150.0527459621428,1152.05388712883,Ich schicke die Dateien als E-Mail-Anhang.,schicke,1151.437154340744,None,1154.354095506668,1155.3541431427002,1166.6380513191223,1167.6380670070648,1168.0380611419678,1169.0381109714508,./data/Subject_01/Session_02/Exp_data/2020_Jul_13_1825/rec_QA_run_02_block_000_trial_008.wav,01,02,English,A2,True,False,True,False,False,True,True,True,True,True,True,True,No,2,No,No,No,No,2020_Jul_13_1825,nibs_stage_1,3.2.3,59.964287092886444,
2,0,2,0,,,,,0,0,0,0,9,0,9,0,,,,,,,,,,,,,,,,,,,,,,,,,,,,,,,,,,,,,,,,,,,,,,,,,Listen to the question and speak out your answer!,1171.1221511363983,None,1171.1038650989533,1173.1049799919128,"Hans arbeitet in einer Schule, er ist der Direktor.",arbeitet,1172.5048563957214,1175.6717841625214,1176.0718002796173,None,1187.6890743255615,None,1189.0891530513763,1190.089220046997,./data/Subject_01/Session_02/Exp_data/2020_Jul_13_1825/rec_QA_run_02_block_000_trial_009.wav,01,02,English,A2,True,False,True,False,False,True,True,True,True,True,True,True,No,2,No,No,No,No,2020_Jul_13_1825,nibs_stage_1,3.2.3,59.964287092886444,
2,0,2,0,,,,,0,0,0,0,10,0,10,0,,,,,,,,,,,,,,,,,,,,,,,,,,,,,,,,,,,,,,,,,,,,,,,,,Listen to the question and speak out your answer!,1192.13938498497,None,1192.121670293808,1194.156149148941,Sarah badet lieber abends in der Wanne.,badet,1193.5060813903808,1195.922816991806,1196.339492368698,1197.356426000595,1208.7069492816925,1209.7070941925049,1210.1071000099182,1211.1072092056274,./data/Subject_01/Session_02/Exp_data/2020_Jul_13_1825/rec_QA_run_02_block_000_trial_010.wav,01,02,English,A2,True,False,True,False,False,True,True,True,True,True,True,True,No,2,No,No,No,No,2020_Jul_13_1825,nibs_stage_1,3.2.3,59.964287092886444,
2,0,2,0,,,,,0,0,0,0,11,0,11,0,,,,,,,,,,,,,,,,,,,,,,,,,,,,,,,,,,,,,,,,,,,,,,,,,Listen to the question and speak out your answer!,1213.2576460838318,None,1213.2397862434386,1215.240905046463,"Sie war zu stolz, um ihn um Hilfe zu bitten.",bitten,1214.6407034873962,None,1217.9244554519653,1218.9242651462555,1229.8414614677429,None,1231.2747449874878,None,./data/Subject_01/Session_02/Exp_data/2020_Jul_13_1825/rec_QA_run_02_block_000_trial_011.wav,01,02,English,A2,True,False,True,False,False,True,True,True,True,True,True,True,No,2,No,No,No,No,2020_Jul_13_1825,nibs_stage_1,3.2.3,59.964287092886444,
2,0,2,0,,,,,0,0,0,0,12,0,12,0,,,,,,,,,,,,,,,,,,,,,,,,,,,,,,,,,,,,,,,,,,,,,,,,,Listen to the question and speak out your answer!,1234.292042016983,None,1234.2740746498107,1236.2753071784973,"Finden Sie nicht, er hat sich nach dem Tod seines Kindes völlig verändert?",verändert,1235.675123500824,1239.7587041854858,1240.1753824234008,None,1250.8759434700012,None,1252.2760272026062,1253.2760729789734,./data/Subject_01/Session_02/Exp_data/2020_Jul_13_1825/rec_QA_run_02_block_000_trial_012.wav,01,02,English,A2,True,False,True,False,False,True,True,True,True,True,True,True,No,2,No,No,No,No,2020_Jul_13_1825,nibs_stage_1,3.2.3,59.964287092886444,
2,0,2,0,,,,,0,0,0,0,13,0,13,0,,,,,,,,,,,,,,,,,,,,,,,,,,,,,,,,,,,,,,,,,,,,,,,,,Listen to the question and speak out your answer!,1255.3261241912842,None,1255.308508491516,1257.309590101242,"Wir hoffen, dass die Verhandlungen zu einem erfolgreichen Abschluss kommen.",hoffen,1256.6928463459014,1260.776417016983,1261.1930773735046,None,1271.8936584472656,None,1273.2937309741974,1274.2937650680542,./data/Subject_01/Session_02/Exp_data/2020_Jul_13_1825/rec_QA_run_02_block_000_trial_013.wav,01,02,English,A2,True,False,True,False,False,True,True,True,True,True,True,True,No,2,No,No,No,No,2020_Jul_13_1825,nibs_stage_1,3.2.3,59.964287092886444,
2,0,2,0,,,,,0,0,0,0,14,0,14,0,,,,,,,,,,,,,,,,,,,,,,,,,,,,,,,,,,,,,,,,,,,,,,,,,Listen to the question and speak out your answer!,1276.3780419826508,None,1276.359543943405,1278.3607020378113,Diese Speise schmeckt sauer.,schmeckt,1277.7440042972564,1279.7274169921875,1280.1274433612823,1281.1273729801178,1292.9446573734283,None,1294.3612661361694,None,./data/Subject_01/Session_02/Exp_data/2020_Jul_13_1825/rec_QA_run_02_block_000_trial_014.wav,01,02,English,A2,True,False,True,False,False,True,True,True,True,True,True,True,No,2,No,No,No,No,2020_Jul_13_1825,nibs_stage_1,3.2.3,59.964287092886444,
2,0,2,0,,,,,0,0,0,0,15,0,15,0,,,,,,,,,,,,,,,,,,,,,,,,,,,,,,,,,,,,,,,,,,,,,,,,,Listen to the question and speak out your answer!,1297.4296820163727,None,1297.4103938579558,1299.4282071590424,"Man nennt Klima-Wandel , dass die Temperaturen auf unserer Erde steigen.",steigen,1298.8115644931793,None,1303.6117384910583,1304.6285932064056,1314.012262392044,None,1315.429027080536,None,./data/Subject_01/Session_02/Exp_data/2020_Jul_13_1825/rec_QA_run_02_block_000_trial_015.wav,01,02,English,A2,True,False,True,False,False,True,True,True,True,True,True,True,No,2,No,No,No,No,2020_Jul_13_1825,nibs_stage_1,3.2.3,59.964287092886444,
2,0,2,0,,,,,0,0,0,0,16,0,16,0,,,,,,,,,,,,,,,,,,,,,,,,,,,,,,,,,,,,,,,,,,,,,,,,,Listen to the question and speak out your answer!,1318.4961190223694,None,1318.47817697525,1320.4959449768066,Ich musste für meinen Vortrag eine Menge Informationen sammeln.,sammeln,1319.8793213844299,1323.6961250305176,1324.0794404029846,None,1335.0800724506378,1336.0967869758606,1336.4967830181122,None,./data/Subject_01/Session_02/Exp_data/2020_Jul_13_1825/rec_QA_run_02_block_000_trial_016.wav,01,02,English,A2,True,False,True,False,False,True,True,True,True,True,True,True,No,2,No,No,No,No,2020_Jul_13_1825,nibs_stage_1,3.2.3,59.964287092886444,
2,0,2,0,,,,,0,0,0,0,17,0,17,0,,,,,,,,,,,,,,,,,,,,,,,,,,,,,,,,,,,,,,,,,,,,,,,,,Listen to the question and speak out your answer!,1339.5640110969543,None,1339.5459589004515,1341.5637180805206,Die Präsentation dauert eine halbe Stunde.,dauert,1340.9470074653625,1343.730591058731,1344.0805004119873,None,1356.1477833271026,None,1357.564728975296,None,./data/Subject_01/Session_02/Exp_data/2020_Jul_13_1825/rec_QA_run_02_block_000_trial_017.wav,01,02,English,A2,True,False,True,False,False,True,True,True,True,True,True,True,No,2,No,No,No,No,2020_Jul_13_1825,nibs_stage_1,3.2.3,59.964287092886444,
2,0,2,0,,,,,0,0,0,0,18,0,18,0,,,,,,,,,,,,,,,,,,,,,,,,,,,,,,,,,,,,,,,,,,,,,,,,,Listen to the question and speak out your answer!,1360.6315290927887,None,1360.5970495700835,1362.6314010620117,Wir sollten das Menü auf ein grünes Blatt Papier drucken.,drucken,1362.0147862911224,None,1365.8149703025817,None,1377.2155793190002,1378.2323081493378,1378.632336139679,None,./data/Subject_01/Session_02/Exp_data/2020_Jul_13_1825/rec_QA_run_02_block_000_trial_018.wav,01,02,English,A2,True,False,True,False,False,True,True,True,True,True,True,True,No,2,No,No,No,No,2020_Jul_13_1825,nibs_stage_1,3.2.3,59.964287092886444,
2,0,2,0,,,,,0,0,0,0,19,0,19,0,,,,,,,,,,,,,,,,,,,,,,,,,,,,,,,,,,,,,,,,,,,,,,,,,Listen to the question and speak out your answer!,1381.6665561199188,None,1381.6314157009124,1383.6659100055695,Um Mitternacht schließt das Lokal.,schließt,1383.0492413520813,None,1385.5493243217468,None,1398.250004339218,None,1399.6667580604553,None,./data/Subject_01/Session_02/Exp_data/2020_Jul_13_1825/rec_QA_run_02_block_000_trial_019.wav,01,02,English,A2,True,False,True,False,False,True,True,True,True,True,True,True,No,2,No,No,No,No,2020_Jul_13_1825,nibs_stage_1,3.2.3,59.964287092886444,
2,0,2,0,,,,,0,0,0,0,20,0,20,0,,,,,,,,,,,,,,,,,,,,,,,,,,,,,,,,,,,,,,,,,,,,,,,,,Listen to the question and speak out your answer!,1402.7007641792297,None,1402.6658826828002,1404.7003571987152,Viele Zettel sind an der Wand gehängt.,gehängt,1404.0835223674774,None,1406.6504104614257,1407.667153120041,1419.284399318695,1420.3011322021484,1420.7012660503387,None,./data/Subject_01/Session_02/Exp_data/2020_Jul_13_1825/rec_QA_run_02_block_000_trial_020.wav,01,02,English,A2,True,False,True,False,False,True,True,True,True,True,True,True,No,2,No,No,No,No,2020_Jul_13_1825,nibs_stage_1,3.2.3,59.964287092886444,
2,0,2,0,,,,,0,0,0,0,21,0,21,0,,,,,,,,,,,,,,,,,,,,,,,,,,,,,,,,,,,,,,,,,,,,,,,,,Listen to the question and speak out your answer!,1423.736174106598,None,1423.716972017288,1425.7347650527954,"Befristete Verträge enden automatisch, wenn sie nicht erneuert werden.",enden,1425.1180303573608,1429.401626110077,1429.7849624633789,None,1440.3188524723053,None,1441.7356820106506,None,./data/Subject_01/Session_02/Exp_data/2020_Jul_13_1825/rec_QA_run_02_block_000_trial_021.wav,01,02,English,A2,True,False,True,False,False,True,True,True,True,True,True,True,No,2,No,No,No,No,2020_Jul_13_1825,nibs_stage_1,3.2.3,59.964287092886444,
2,0,2,0,,,,,0,0,0,0,22,0,22,0,,,,,,,,,,,,,,,,,,,,,,,,,,,,,,,,,,,,,,,,,,,,,,,,,Listen to the question and speak out your answer!,1444.8027591705322,None,1444.784776830673,1446.802700996399,"Bitte reservieren Sie einen Platz, bevor Sie ins Restaurant gehen.",reservieren,1446.1858244419097,1450.2359540462494,1450.6193774223327,1451.6361010074615,1461.3865993499755,1462.4033250808716,1462.8034031391144,None,./data/Subject_01/Session_02/Exp_data/2020_Jul_13_1825/rec_QA_run_02_block_000_trial_022.wav,01,02,English,A2,True,False,True,False,False,True,True,True,True,True,True,True,No,2,No,No,No,No,2020_Jul_13_1825,nibs_stage_1,3.2.3,59.964287092886444,
2,0,2,0,,,,,0,0,0,0,23,0,23,0,,,,,,,,,,,,,,,,,,,,,,,,,,,,,,,,,,,,,,,,,,,,,,,,,Listen to the question and speak out your answer!,1465.8375051021576,None,1465.8024855613708,1467.8370020389557,"Sie beschrieb der Polizei den Dieb so genau, dass diese ihn festnehmen konnnte.",beschrieb,1467.2202244281768,None,1472.087454366684,None,1482.4210503578186,None,1483.837671995163,None,./data/Subject_01/Session_02/Exp_data/2020_Jul_13_1825/rec_QA_run_02_block_000_trial_023.wav,01,02,English,A2,True,False,True,False,False,True,True,True,True,True,True,True,No,2,No,No,No,No,2020_Jul_13_1825,nibs_stage_1,3.2.3,59.964287092886444,
2,0,2,0,,,,,0,0,0,0,24,0,24,0,,,,,,,,,,,,,,,,,,,,,,,,,,,,,,,,,,,,,,,,,,,,,,,,,Listen to the question and speak out your answer!,1486.8547151088715,None,1486.8204951763153,1488.8549830913544,"Wir schafften es, das Projekt nach Plan abzuschließen.",schafften,1488.2380633831024,1491.6883690357208,1492.0715413570404,None,1503.4387643814086,None,1504.85560297966,None,./data/Subject_01/Session_02/Exp_data/2020_Jul_13_1825/rec_QA_run_02_block_000_trial_024.wav,01,02,English,A2,True,False,True,False,False,True,True,True,True,True,True,True,No,2,No,No,No,No,2020_Jul_13_1825,nibs_stage_1,3.2.3,59.964287092886444,
2,0,2,0,,,,,0,0,0,0,,,,,,,,,,,,,,,,,,,,,,,,,,,,,,,,,,,,,,,,,,1508.8724160194397,None,,,,,,,,,,,,,,,,,,,,,,,,,,01,02,English,A2,True,False,True,False,False,True,True,True,True,True,True,True,No,2,No,No,No,No,2020_Jul_13_1825,nibs_stage_1,3.2.3,59.964287092886444,
2,0,2,0,,,,,1,0,1,0,0,0,0,0,,,,,,,,,,,,,,,,,,,,,,,,,,,,,,,,,,,,,,,,,,,,,,,,,Listen to the question and speak out your answer!,1528.4407360553741,None,1528.405335998535,1530.4402899742126,Er ist ein Experte für Computer und kennt alle technischen Details.,kennt,1529.82348446846,1533.940374135971,1534.3237374305725,None,1545.024826335907,None,1546.4410290718079,None,./data/Subject_01/Session_02/Exp_data/2020_Jul_13_1825/rec_QA_run_02_block_001_trial_000.wav,01,02,English,A2,True,False,True,False,False,True,True,True,True,True,True,True,No,2,No,No,No,No,2020_Jul_13_1825,nibs_stage_1,3.2.3,59.964287092886444,
2,0,2,0,,,,,1,0,1,0,1,0,1,0,,,,,,,,,,,,,,,,,,,,,,,,,,,,,,,,,,,,,,,,,,,,,,,,,Listen to the question and speak out your answer!,1549.474594116211,None,1549.4401815891265,1551.4746341705322,Durch die Klimaveränderung steigen die Temperaturen auf der Erde.,steigen,1550.8578444004058,None,1555.3582733154296,None,1566.0587134838104,1567.075347185135,1567.4755191802979,None,./data/Subject_01/Session_02/Exp_data/2020_Jul_13_1825/rec_QA_run_02_block_001_trial_001.wav,01,02,English,A2,True,False,True,False,False,True,True,True,True,True,True,True,No,2,No,No,No,No,2020_Jul_13_1825,nibs_stage_1,3.2.3,59.964287092886444,
2,0,2,0,,,,,1,0,1,0,2,0,2,0,,,,,,,,,,,,,,,,,,,,,,,,,,,,,,,,,,,,,,,,,,,,,,,,,Listen to the question and speak out your answer!,1570.5096101760864,None,1570.474668598175,1572.5090401172638,Die Ärztin hat Andrea ein Rezept ausgestellt.,ausgestellt,1571.8923295021057,1574.942780971527,1575.3258514881134,None,1587.093157339096,None,1588.5098841190338,None,./data/Subject_01/Session_02/Exp_data/2020_Jul_13_1825/rec_QA_run_02_block_001_trial_002.wav,01,02,English,A2,True,False,True,False,False,True,True,True,True,True,True,True,No,2,No,No,No,No,2020_Jul_13_1825,nibs_stage_1,3.2.3,59.964287092886444,
2,0,2,0,,,,,1,0,1,0,3,0,3,0,,,,,,,,,,,,,,,,,,,,,,,,,,,,,,,,,,,,,,,,,,,,,,,,,Listen to the question and speak out your answer!,1591.5605301856995,None,1591.525602006912,1593.5601541996002,Meine dicke Katze muss abnehmen.,abnehmen,1592.910098361969,None,1595.2769003391265,None,1608.1108804225921,None,1609.5276401042938,None,./data/Subject_01/Session_02/Exp_data/2020_Jul_13_1825/rec_QA_run_02_block_001_trial_003.wav,01,02,English,A2,True,False,True,False,False,True,True,True,True,True,True,True,No,2,No,No,No,No,2020_Jul_13_1825,nibs_stage_1,3.2.3,59.964287092886444,
2,0,2,0,,,,,1,0,1,0,4,0,4,0,,,,,,,,,,,,,,,,,,,,,,,,,,,,,,,,,,,,,,,,,,,,,,,,,Listen to the question and speak out your answer!,1612.5951120853424,None,1612.560197687149,1614.5945692062378,Mani ist ins Kino gegangen und hat sich einen guten Film angesehen.,angesehen,1613.977858352661,None,1618.54476647377,1619.561495065689,1629.1788664340972,None,1630.5954501628876,None,./data/Subject_01/Session_02/Exp_data/2020_Jul_13_1825/rec_QA_run_02_block_001_trial_004.wav,01,02,English,A2,True,False,True,False,False,True,True,True,True,True,True,True,No,2,No,No,No,No,2020_Jul_13_1825,nibs_stage_1,3.2.3,59.964287092886444,
2,0,2,0,,,,,1,0,1,0,5,0,5,0,,,,,,,,,,,,,,,,,,,,,,,,,,,,,,,,,,,,,,,,,,,,,,,,,Listen to the question and speak out your answer!,1633.6304121017456,None,1633.6111768722533,1635.6292669773102,"Deine Haare sind so kurz, warst du beim Friseur?",warst,1634.9789383888244,1638.095801115036,1638.479119348526,None,1650.1797273635864,None,1651.5964879989624,None,./data/Subject_01/Session_02/Exp_data/2020_Jul_13_1825/rec_QA_run_02_block_001_trial_005.wav,01,02,English,A2,True,False,True,False,False,True,True,True,True,True,True,True,No,2,No,No,No,No,2020_Jul_13_1825,nibs_stage_1,3.2.3,59.964287092886444,
2,0,2,0,,,,,1,0,1,0,6,0,6,0,,,,,,,,,,,,,,,,,,,,,,,,,,,,,,,,,,,,,,,,,,,,,,,,,Listen to the question and speak out your answer!,1654.680088043213,None,1654.6456519603728,1656.6801590919495,"Die U-Bahn ist gerade kaputt, also muss ich aussteigen. ",aussteigen,1656.0300293445587,None,1659.830359506607,None,1671.2308292865753,None,1672.6475591659546,None,./data/Subject_01/Session_02/Exp_data/2020_Jul_13_1825/rec_QA_run_02_block_001_trial_006.wav,01,02,English,A2,True,False,True,False,False,True,True,True,True,True,True,True,No,2,No,No,No,No,2020_Jul_13_1825,nibs_stage_1,3.2.3,59.964287092886444,
2,0,2,0,,,,,1,0,1,0,7,0,7,0,,,,,,,,,,,,,,,,,,,,,,,,,,,,,,,,,,,,,,,,,,,,,,,,,Listen to the question and speak out your answer!,1675.7159631252289,None,1675.6967138290404,1677.7144939899445,Zu Ostern gibt es für Kinder Ostereier und Süßigkeiten.,gibt,1677.097812461853,None,1681.2315264225006,None,1692.298877286911,None,1693.7155129909515,None,./data/Subject_01/Session_02/Exp_data/2020_Jul_13_1825/rec_QA_run_02_block_001_trial_007.wav,01,02,English,A2,True,False,True,False,False,True,True,True,True,True,True,True,No,2,No,No,No,No,2020_Jul_13_1825,nibs_stage_1,3.2.3,59.964287092886444,
2,0,2,0,,,,,1,0,1,0,8,0,8,0,,,,,,,,,,,,,,,,,,,,,,,,,,,,,,,,,,,,,,,,,,,,,,,,,Listen to the question and speak out your answer!,1696.7821741104126,None,1696.7478576660155,1698.7823259830475,"Wenn man seine Zähne putzt, muss er die Zahnpasta auf Zahnbürste pressen.",putzt,1698.1655624389648,1702.4826080799103,1702.8658082962036,1703.8825252056122,1713.366445350647,None,1714.783096075058,None,./data/Subject_01/Session_02/Exp_data/2020_Jul_13_1825/rec_QA_run_02_block_001_trial_008.wav,01,02,English,A2,True,False,True,False,False,True,True,True,True,True,True,True,No,2,No,No,No,No,2020_Jul_13_1825,nibs_stage_1,3.2.3,59.964287092886444,
2,0,2,0,,,,,1,0,1,0,9,0,9,0,,,,,,,,,,,,,,,,,,,,,,,,,,,,,,,,,,,,,,,,,,,,,,,,,Listen to the question and speak out your answer!,1717.8166720867157,None,1717.7822645664214,1719.8166861534119,Er möchte sich für meine Hilfe bedanken.,bedanken,1719.1999943733215,None,1721.90014128685,1722.9168632030487,1734.4007614135742,None,1735.817535161972,None,./data/Subject_01/Session_02/Exp_data/2020_Jul_13_1825/rec_QA_run_02_block_001_trial_009.wav,01,02,English,A2,True,False,True,False,False,True,True,True,True,True,True,True,No,2,No,No,No,No,2020_Jul_13_1825,nibs_stage_1,3.2.3,59.964287092886444,
2,0,2,0,,,,,1,0,1,0,10,0,10,0,,,,,,,,,,,,,,,,,,,,,,,,,,,,,,,,,,,,,,,,,,,,,,,,,Listen to the question and speak out your answer!,1738.8513350486755,None,1738.8334468841551,1740.851095199585,Ich habe die Zitrone in Scheiben geschnitten.,geschnitten,1740.2344143867492,None,1743.1679573535919,None,1755.435118484497,None,1756.851986169815,None,./data/Subject_01/Session_02/Exp_data/2020_Jul_13_1825/rec_QA_run_02_block_001_trial_010.wav,01,02,English,A2,True,False,True,False,False,True,True,True,True,True,True,True,No,2,No,No,No,No,2020_Jul_13_1825,nibs_stage_1,3.2.3,59.964287092886444,
2,0,2,0,,,,,1,0,1,0,11,0,11,0,,,,,,,,,,,,,,,,,,,,,,,,,,,,,,,,,,,,,,,,,,,,,,,,,Listen to the question and speak out your answer!,1759.9027740955353,None,1759.8677460193633,1761.9021961688995,"Es ist ratsam, auch das Urteil anderer zu hören.",hören,1761.2521663188934,None,1764.8190134048461,None,1776.4529355049133,None,1777.8696870803833,None,./data/Subject_01/Session_02/Exp_data/2020_Jul_13_1825/rec_QA_run_02_block_001_trial_011.wav,01,02,English,A2,True,False,True,False,False,True,True,True,True,True,True,True,No,2,No,No,No,No,2020_Jul_13_1825,nibs_stage_1,3.2.3,59.964287092886444,
2,0,2,0,,,,,1,0,1,0,12,0,12,0,,,,,,,,,,,,,,,,,,,,,,,,,,,,,,,,,,,,,,,,,,,,,,,,,Listen to the question and speak out your answer!,1781.0049409866333,None,1780.9856420516967,1783.003350019455,"Die USA gewannen den Zweiten Weltkrieg, nachdem sie mehrere Jahre lang gekämpft hatten.",gewannen,1782.3867764949798,None,1788.220155286789,None,1797.5873804569244,None,1799.0042080879211,None,./data/Subject_01/Session_02/Exp_data/2020_Jul_13_1825/rec_QA_run_02_block_001_trial_012.wav,01,02,English,A2,True,False,True,False,False,True,True,True,True,True,True,True,No,2,No,No,No,No,2020_Jul_13_1825,nibs_stage_1,3.2.3,59.964287092886444,
2,0,2,0,,,,,1,0,1,0,13,0,13,0,,,,,,,,,,,,,,,,,,,,,,,,,,,,,,,,,,,,,,,,,,,,,,,,,Listen to the question and speak out your answer!,1802.038288116455,None,1802.0032905101775,1804.0377171039581,Ich hielt das Küken vorsichtig in beiden Händen.,hielt,1803.4210193634033,None,1806.721204328537,None,1818.6218042850494,None,1820.038460969925,None,./data/Subject_01/Session_02/Exp_data/2020_Jul_13_1825/rec_QA_run_02_block_001_trial_013.wav,01,02,English,A2,True,False,True,False,False,True,True,True,True,True,True,True,No,2,No,No,No,No,2020_Jul_13_1825,nibs_stage_1,3.2.3,59.964287092886444,
2,0,2,0,,,,,1,0,1,0,14,0,14,0,,,,,,,,,,,,,,,,,,,,,,,,,,,,,,,,,,,,,,,,,,,,,,,,,Listen to the question and speak out your answer!,1823.0887479782104,None,1823.0545050144194,1825.0888061523438,"Nur wenn mein Haar schmutzig ist, werde ich es bürsten.",bürsten,1824.4387693881988,None,1827.90560631752,None,1839.6395733833313,1840.6563789844513,1841.0562970638275,None,./data/Subject_01/Session_02/Exp_data/2020_Jul_13_1825/rec_QA_run_02_block_001_trial_014.wav,01,02,English,A2,True,False,True,False,False,True,True,True,True,True,True,True,No,2,No,No,No,No,2020_Jul_13_1825,nibs_stage_1,3.2.3,59.964287092886444,
2,0,2,0,,,,,1,0,1,0,15,0,15,0,,,,,,,,,,,,,,,,,,,,,,,,,,,,,,,,,,,,,,,,,,,,,,,,,Listen to the question and speak out your answer!,1844.1407539844513,None,1844.1054970264433,1846.140174150467,Ich schnitt das Fleisch in Würfel.,schnitt,1845.489873456955,None,1847.789996433258,None,1860.6906693458557,None,1862.107407093048,None,./data/Subject_01/Session_02/Exp_data/2020_Jul_13_1825/rec_QA_run_02_block_001_trial_015.wav,01,02,English,A2,True,False,True,False,False,True,True,True,True,True,True,True,No,2,No,No,No,No,2020_Jul_13_1825,nibs_stage_1,3.2.3,59.964287092886444,
2,0,2,0,,,,,1,0,1,0,16,0,16,0,,,,,,,,,,,,,,,,,,,,,,,,,,,,,,,,,,,,,,,,,,,,,,,,,Listen to the question and speak out your answer!,1865.174420118332,None,1865.1398867130279,1867.1746060848236,Im gleichen Jahr hat der amerikanische Bürgerkrieg begonnen.,begonnen,1866.52429728508,None,1870.424496459961,None,1881.7253494739532,None,1883.1418170928955,None,./data/Subject_01/Session_02/Exp_data/2020_Jul_13_1825/rec_QA_run_02_block_001_trial_016.wav,01,02,English,A2,True,False,True,False,False,True,True,True,True,True,True,True,No,2,No,No,No,No,2020_Jul_13_1825,nibs_stage_1,3.2.3,59.964287092886444,
2,0,2,0,,,,,1,0,1,0,17,0,17,0,,,,,,,,,,,,,,,,,,,,,,,,,,,,,,,,,,,,,,,,,,,,,,,,,Listen to the question and speak out your answer!,1886.2093360424042,None,1886.1743327140807,1888.208724975586,Das Experiment hat eine Woche lang gedauert.,gedauert,1887.5920413017272,1890.3756730556488,1890.7255414009094,None,1902.7927654266357,None,1904.2095880508423,None,./data/Subject_01/Session_02/Exp_data/2020_Jul_13_1825/rec_QA_run_02_block_001_trial_017.wav,01,02,English,A2,True,False,True,False,False,True,True,True,True,True,True,True,No,2,No,No,No,No,2020_Jul_13_1825,nibs_stage_1,3.2.3,59.964287092886444,
2,0,2,0,,,,,1,0,1,0,18,0,18,0,,,,,,,,,,,,,,,,,,,,,,,,,,,,,,,,,,,,,,,,,,,,,,,,,Listen to the question and speak out your answer!,1907.2433891296387,None,1907.2254468441008,1909.2431781291962,Ich bekomme ein Gehalt und Nebenleistungen.,bekomme,1908.626488494873,None,1911.6599753379821,1912.6766920089722,1923.8272643566131,None,1925.2440600395203,None,./data/Subject_01/Session_02/Exp_data/2020_Jul_13_1825/rec_QA_run_02_block_001_trial_018.wav,01,02,English,A2,True,False,True,False,False,True,True,True,True,True,True,True,No,2,No,No,No,No,2020_Jul_13_1825,nibs_stage_1,3.2.3,59.964287092886444,
2,0,2,0,,,,,1,0,1,0,19,0,19,0,,,,,,,,,,,,,,,,,,,,,,,,,,,,,,,,,,,,,,,,,,,,,,,,,Listen to the question and speak out your answer!,1928.2781600952148,None,1928.2431715488433,1930.2776041030884,Warum antwortest du nicht auf meine Frage?,antwortest,1929.627650308609,None,1932.761257457733,None,1944.8283253192901,1945.8450679779053,1946.2450911998749,None,./data/Subject_01/Session_02/Exp_data/2020_Jul_13_1825/rec_QA_run_02_block_001_trial_019.wav,01,02,English,A2,True,False,True,False,False,True,True,True,True,True,True,True,No,2,No,No,No,No,2020_Jul_13_1825,nibs_stage_1,3.2.3,59.964287092886444,
2,0,2,0,,,,,1,0,1,0,20,0,20,0,,,,,,,,,,,,,,,,,,,,,,,,,,,,,,,,,,,,,,,,,,,,,,,,,Listen to the question and speak out your answer!,1949.3137559890747,None,1949.2941538333891,1951.3120331764221,Er hat meine Sympathie gewonnen.,gewonnen,1950.6954424858093,1952.5787811279297,1952.9621103286743,None,1965.8960974693298,None,1967.312767982483,None,./data/Subject_01/Session_02/Exp_data/2020_Jul_13_1825/rec_QA_run_02_block_001_trial_020.wav,01,02,English,A2,True,False,True,False,False,True,True,True,True,True,True,True,No,2,No,No,No,No,2020_Jul_13_1825,nibs_stage_1,3.2.3,59.964287092886444,
2,0,2,0,,,,,1,0,1,0,21,0,21,0,,,,,,,,,,,,,,,,,,,,,,,,,,,,,,,,,,,,,,,,,,,,,,,,,Listen to the question and speak out your answer!,1970.3479731082916,None,1970.3288179874419,1972.346449136734,Ein Gewitter besteht aus Blitz und Donner.,besteht,1971.7297444820404,None,1974.5965602874755,None,1986.9305363178253,1987.947308063507,1988.3473000526428,None,./data/Subject_01/Session_02/Exp_data/2020_Jul_13_1825/rec_QA_run_02_block_001_trial_021.wav,01,02,English,A2,True,False,True,False,False,True,True,True,True,True,True,True,No,2,No,No,No,No,2020_Jul_13_1825,nibs_stage_1,3.2.3,59.964287092886444,
2,0,2,0,,,,,1,0,1,0,22,0,22,0,,,,,,,,,,,,,,,,,,,,,,,,,,,,,,,,,,,,,,,,,,,,,,,,,Listen to the question and speak out your answer!,1991.3811299800873,None,1991.3631268978118,1993.3808691501617,Ich habe mich dieses Semester für einen sehr einfachen Kurs angemeldet.,angemeldet,1992.7641723632812,None,1997.264328289032,None,2007.9649672985076,None,2009.3818151950836,None,./data/Subject_01/Session_02/Exp_data/2020_Jul_13_1825/rec_QA_run_02_block_001_trial_022.wav,01,02,English,A2,True,False,True,False,False,True,True,True,True,True,True,True,No,2,No,No,No,No,2020_Jul_13_1825,nibs_stage_1,3.2.3,59.964287092886444,
2,0,2,0,,,,,1,0,1,0,23,0,23,0,,,,,,,,,,,,,,,,,,,,,,,,,,,,,,,,,,,,,,,,,,,,,,,,,Listen to the question and speak out your answer!,2012.4325489997864,None,2012.3975287914275,2014.43199300766,"Ich habe keine Ahnung, wie viel du für das Auto gezahlt hast, aber lass mich mal raten.",raten,2013.7819405078887,2018.9988679885864,2019.3822293758392,None,2028.9826214790344,2029.999747991562,2030.399474143982,None,./data/Subject_01/Session_02/Exp_data/2020_Jul_13_1825/rec_QA_run_02_block_001_trial_023.wav,01,02,English,A2,True,False,True,False,False,True,True,True,True,True,True,True,No,2,No,No,No,No,2020_Jul_13_1825,nibs_stage_1,3.2.3,59.964287092886444,
2,0,2,0,,,,,1,0,1,0,24,0,24,0,,,,,,,,,,,,,,,,,,,,,,,,,,,,,,,,,,,,,,,,,,,,,,,,,Listen to the question and speak out your answer!,2033.4829859733582,None,2033.448731803894,2035.4830861091614,Der Prüfer hat die Erfüllung gesetzlicher Auflagen durch das Unternehmen kontrolliert.,kontrolliert,2034.8332083702087,None,2040.0333552837371,None,2050.0337934970858,None,2051.450599193573,None,./data/Subject_01/Session_02/Exp_data/2020_Jul_13_1825/rec_QA_run_02_block_001_trial_024.wav,01,02,English,A2,True,False,True,False,False,True,True,True,True,True,True,True,No,2,No,No,No,No,2020_Jul_13_1825,nibs_stage_1,3.2.3,59.964287092886444,
