run.thisRepN,run.thisTrialN,run.thisN,run.thisIndex,QA_block.thisRepN,QA_block.thisTrialN,QA_block.thisN,QA_block.thisIndex,QA_trial.thisRepN,QA_trial.thisTrialN,QA_trial.thisN,QA_trial.thisIndex,fade_in_text.text,fade_in_text.started,fade_in_text.stopped,RS_intro_title.started,RS_intro_title.stopped,RS_intro_text.text,RS_intro_text.started,RS_intro_text.stopped,RS_intro_audio.started,RS_intro_audio.stopped,RS_rec_text.text,RS_rec_text.started,RS_rec_text.stopped,Pause_cont.started,Pause_cont.stopped,QA_intro_title.started,QA_intro_title.stopped,QA_intro_text.text,QA_intro_text.started,QA_intro_text.stopped,QA_intro_audio.started,QA_intro_audio.stopped,QA_intro_cont.started,QA_intro_cont.stopped,QA_rec_text.text,QA_rec_text.started,QA_rec_text.stopped,QA_rec_beep_hint.started,QA_rec_beep_hint.stopped,QA_rec_question.sen_text,QA_rec_question.cen_text,QA_rec_question.started,QA_rec_question.stopped,QA_rec_beep_start.started,QA_rec_beep_start.stopped,QA_rec_beep_end.started,QA_rec_beep_end.stopped,QA_rec_break.started,QA_rec_break.stopped,filename,participant,session,First language,German level,Full_screen,Instruction,Intro,Artifact,Cali_pre,Fade_in_out,Artifact_within,Resting_State,QA,Pause,Cali_post,End,Breakpoint_Cali_pre_trial,Breakpoint_Run,Breakpoint_RS_block,Breakpoint_QA_block,Breakpoint_QA_trial,Breakpoint_Cali_post_trial,date,expName,psychopyVersion,frameRate,
1,0,1,0,0,0,0,0,0,0,0,0,Please remain seated until further instruction via the earphone.,57.56344294548035,None,267.02471804618835,None," - Task: Keep seated and relaxed with either      
             opening or closing eyes                  
 - Beep sound with decreasing pitch: Block finish 
",267.02471804618835,None,267.0076547145843,None,"Please keep relaxed and open your eyes.
Note: Blinking is allowed.",290.0590488910675,470.0685980319977,473.4021339416504,None,488.33636689186096,None," - Task: Listen to the question& Speak out answer 
 - Melodious beep sound: Trial start              
 - Silent sound (blank): censored word            
 - Beep sound with increasing pitch: Rec. start   
 - Beep sound with decreasing pitch: Rec. finish  
",488.33636689186096,None,488.3191856384277,None,527.7212948799133,None,Listen to the question and speak out your answer!,530.8549518585205,None,530.8379082202911,532.8382289409637,"Alchemisten haben geglaubt, sie können Gold herstellen.",herstellen,532.2381187915802,535.7216310501099,536.12163772583,None,547.4391438007355,None,548.8392560482025,549.8393518924713,./data/Subject_09/Session_00/Exp_data/2020_Jul_29_1653/rec_QA_run_01_block_000_trial_000.wav,09,00,English,A2,True,False,True,False,False,True,True,True,True,True,True,True,No,1,No,No,No,No,2020_Jul_29_1653,nibs_stage_1,3.2.3,60.0222097562651,
1,0,1,0,0,0,0,0,1,0,1,0,,,,,,,,,,,,,,,,,,,,,,,,,Listen to the question and speak out your answer!,551.8898479938507,None,551.8727007389068,553.87264585495,Ich will nicht mein ganzes Geld für ein neues Auto ausgeben.,ausgeben,553.272597694397,556.7563278675079,557.1730567455292,None,568.4735926628113,None,569.8736720085144,570.8737699985504,./data/Subject_09/Session_00/Exp_data/2020_Jul_29_1653/rec_QA_run_01_block_000_trial_001.wav,09,00,English,A2,True,False,True,False,False,True,True,True,True,True,True,True,No,1,No,No,No,No,2020_Jul_29_1653,nibs_stage_1,3.2.3,60.0222097562651,
1,0,1,0,0,0,0,0,2,0,2,0,,,,,,,,,,,,,,,,,,,,,,,,,Listen to the question and speak out your answer!,572.9403870105743,None,572.9237856388091,574.9236419200897,Ich kann in meiner Badewanne duschen.,duschen,574.3071717262268,576.3573670387268,576.7742327690124,577.7741010189056,589.5079397201538,None,590.9080889225006,591.9081599712372,./data/Subject_09/Session_00/Exp_data/2020_Jul_29_1653/rec_QA_run_01_block_000_trial_002.wav,09,00,English,A2,True,False,True,False,False,True,True,True,True,True,True,True,No,1,No,No,No,No,2020_Jul_29_1653,nibs_stage_1,3.2.3,60.0222097562651,
1,0,1,0,0,0,0,0,3,0,3,0,,,,,,,,,,,,,,,,,,,,,,,,,Listen to the question and speak out your answer!,593.9914798736572,None,593.9748165130615,595.9752190113068,Peter sitzt den ganzen Tag am Computer.,sitzt,595.3581017494201,None,598.6085607051849,None,610.5593146324157,None,611.9591598510742,612.9590020179749,./data/Subject_09/Session_00/Exp_data/2020_Jul_29_1653/rec_QA_run_01_block_000_trial_003.wav,09,00,English,A2,True,False,True,False,False,True,True,True,True,True,True,True,No,1,No,No,No,No,2020_Jul_29_1653,nibs_stage_1,3.2.3,60.0222097562651,
1,0,1,0,0,0,0,0,4,0,4,0,,,,,,,,,,,,,,,,,,,,,,,,,Listen to the question and speak out your answer!,615.0267858505249,None,615.0257815837859,617.0258610248566,Martin geht in ein Reisebüro und lässt sich von einem Angestellten beraten.,beraten,616.4091798305511,None,621.4093216896057,None,631.6099206447601,None,633.0099120140076,634.0106098651886,./data/Subject_09/Session_00/Exp_data/2020_Jul_29_1653/rec_QA_run_01_block_000_trial_004.wav,09,00,English,A2,True,False,True,False,False,True,True,True,True,True,True,True,No,1,No,No,No,No,2020_Jul_29_1653,nibs_stage_1,3.2.3,60.0222097562651,
1,0,1,0,0,0,0,0,5,0,5,0,,,,,,,,,,,,,,,,,,,,,,,,,Listen to the question and speak out your answer!,636.0435240268707,None,636.0272919178009,638.0269298553467,Nikolaus Kopernikus beschreibt das heliozentrische Weltbild.,beschreibt,637.4268206596374,None,641.8270486831665,None,652.6276737689972,653.627641916275,654.0277578830719,655.027811050415,./data/Subject_09/Session_00/Exp_data/2020_Jul_29_1653/rec_QA_run_01_block_000_trial_005.wav,09,00,English,A2,True,False,True,False,False,True,True,True,True,True,True,True,No,1,No,No,No,No,2020_Jul_29_1653,nibs_stage_1,3.2.3,60.0222097562651,
1,0,1,0,0,0,0,0,6,0,6,0,,,,,,,,,,,,,,,,,,,,,,,,,Listen to the question and speak out your answer!,657.0946588516235,None,657.0778266906738,659.078017950058,Wir freuen uns von Herzen über seine ausgezeichnete Leistung.,freuen,658.4779898166656,None,662.778202676773,None,673.6787787914276,None,675.078840970993,676.0789070129395,./data/Subject_09/Session_00/Exp_data/2020_Jul_29_1653/rec_QA_run_01_block_000_trial_006.wav,09,00,English,A2,True,False,True,False,False,True,True,True,True,True,True,True,No,1,No,No,No,No,2020_Jul_29_1653,nibs_stage_1,3.2.3,60.0222097562651,
1,0,1,0,0,0,0,0,7,0,7,0,,,,,,,,,,,,,,,,,,,,,,,,,Listen to the question and speak out your answer!,678.1457409858704,None,678.1289226531982,680.1291048526764,"Um eine Kreditkarte zu bewerben, muss man älter als 18 werden. ",bewerben,679.5124227046966,683.5625329017639,683.9792746543884,None,694.7131756782532,None,696.1132419109344,697.1132929325104,./data/Subject_09/Session_00/Exp_data/2020_Jul_29_1653/rec_QA_run_01_block_000_trial_007.wav,09,00,English,A2,True,False,True,False,False,True,True,True,True,True,True,True,No,1,No,No,No,No,2020_Jul_29_1653,nibs_stage_1,3.2.3,60.0222097562651,
1,0,1,0,0,0,0,0,8,0,8,0,,,,,,,,,,,,,,,,,,,,,,,,,Listen to the question and speak out your answer!,699.1802558898926,None,699.1634037971496,701.1637198925018,Karneval wird jedes Jahr im Februar oder im März gefeiert.,gefeiert,700.5470568180084,None,704.7806207180023,None,715.747826719284,None,717.1478729248047,718.1479308605194,./data/Subject_09/Session_00/Exp_data/2020_Jul_29_1653/rec_QA_run_01_block_000_trial_008.wav,09,00,English,A2,True,False,True,False,False,True,True,True,True,True,True,True,No,1,No,No,No,No,2020_Jul_29_1653,nibs_stage_1,3.2.3,60.0222097562651,
1,0,1,0,0,0,0,0,9,0,9,0,,,,,,,,,,,,,,,,,,,,,,,,,Listen to the question and speak out your answer!,720.2147369384766,None,720.1981578350067,722.1980619430542,Ich möchte mir ein Buch aus der Bibliothek leihen.,leihen,721.5814396381378,724.4649460315704,724.8649617671966,None,736.7822257518768,737.7823178768158,738.1823108196259,739.182375907898,./data/Subject_09/Session_00/Exp_data/2020_Jul_29_1653/rec_QA_run_01_block_000_trial_009.wav,09,00,English,A2,True,False,True,False,False,True,True,True,True,True,True,True,No,1,No,No,No,No,2020_Jul_29_1653,nibs_stage_1,3.2.3,60.0222097562651,
1,0,1,0,0,0,0,0,10,0,10,0,,,,,,,,,,,,,,,,,,,,,,,,,Listen to the question and speak out your answer!,741.2491960525513,None,741.2323978424072,743.2325668334961,Briefe und Pakete verschickt man mit der Post.,verschickt,742.6326006889343,None,745.982721710205,746.9827790260315,757.8333276748657,None,759.2333960533142,760.2334480285645,./data/Subject_09/Session_00/Exp_data/2020_Jul_29_1653/rec_QA_run_01_block_000_trial_010.wav,09,00,English,A2,True,False,True,False,False,True,True,True,True,True,True,True,No,1,No,No,No,No,2020_Jul_29_1653,nibs_stage_1,3.2.3,60.0222097562651,
1,0,1,0,0,0,0,0,11,0,11,0,,,,,,,,,,,,,,,,,,,,,,,,,Listen to the question and speak out your answer!,762.2842779159546,None,762.2834636688232,764.2835519313812,"Denk nicht so viel darüber nach, das wird nichts bringen.",bringen,763.6669568061828,766.7504789829254,767.1504887580871,768.1506559848785,778.867750787735,None,780.2678208351135,781.2678918838501,./data/Subject_09/Session_00/Exp_data/2020_Jul_29_1653/rec_QA_run_01_block_000_trial_011.wav,09,00,English,A2,True,False,True,False,False,True,True,True,True,True,True,True,No,1,No,No,No,No,2020_Jul_29_1653,nibs_stage_1,3.2.3,60.0222097562651,
1,0,1,0,0,0,0,0,12,0,12,0,,,,,,,,,,,,,,,,,,,,,,,,,Listen to the question and speak out your answer!,783.3013408184052,None,783.2845739364624,785.2846410274506,Aufgrund der globalen Erwärmung werden die Häuser der Inselbewohner im Meer versinken.,versinken,784.6680478096008,None,790.0183216571808,791.0185828208923,799.8688527584076,None,801.2688019275665,802.2689390182495,./data/Subject_09/Session_00/Exp_data/2020_Jul_29_1653/rec_QA_run_01_block_000_trial_012.wav,09,00,English,A2,True,False,True,False,False,True,True,True,True,True,True,True,No,1,No,No,No,No,2020_Jul_29_1653,nibs_stage_1,3.2.3,60.0222097562651,
1,0,1,0,0,0,0,0,13,0,13,0,,,,,,,,,,,,,,,,,,,,,,,,,Listen to the question and speak out your answer!,804.3356709480286,None,804.3361315250396,806.3358528614044,Der Läufer hat seine Konkurrenten mühelos geschlagen.,geschlagen,805.7191168308258,808.8526349067688,809.2527076244354,None,820.9199136734009,821.9202499389648,822.3199009895325,823.3200318813324,./data/Subject_09/Session_00/Exp_data/2020_Jul_29_1653/rec_QA_run_01_block_000_trial_013.wav,09,00,English,A2,True,False,True,False,False,True,True,True,True,True,True,True,No,1,No,No,No,No,2020_Jul_29_1653,nibs_stage_1,3.2.3,60.0222097562651,
1,0,1,0,0,0,0,0,14,0,14,0,,,,,,,,,,,,,,,,,,,,,,,,,Listen to the question and speak out your answer!,825.3532938957214,None,825.3367139339447,827.3365960121155,Marco hat gestern einen Brief an seine Eltern geschrieben.,geschrieben,826.7199317455292,830.0533969402313,830.4700976848602,None,841.9212676525116,None,843.321063041687,844.3211300373077,./data/Subject_09/Session_00/Exp_data/2020_Jul_29_1653/rec_QA_run_01_block_000_trial_014.wav,09,00,English,A2,True,False,True,False,False,True,True,True,True,True,True,True,No,1,No,No,No,No,2020_Jul_29_1653,nibs_stage_1,3.2.3,60.0222097562651,
1,0,1,0,0,0,0,0,15,0,15,0,,,,,,,,,,,,,,,,,,,,,,,,,Listen to the question and speak out your answer!,846.4050240516663,None,846.3886475086211,848.3877730369568,Können Sie die Kleidung des Täters beschreiben?,beschreiben,847.7876638412475,None,850.6547886371612,None,862.9889856815338,None,864.3889689445496,865.388867855072,./data/Subject_09/Session_00/Exp_data/2020_Jul_29_1653/rec_QA_run_01_block_000_trial_015.wav,09,00,English,A2,True,False,True,False,False,True,True,True,True,True,True,True,No,1,No,No,No,No,2020_Jul_29_1653,nibs_stage_1,3.2.3,60.0222097562651,
1,0,1,0,0,0,0,0,16,0,16,0,,,,,,,,,,,,,,,,,,,,,,,,,Listen to the question and speak out your answer!,867.4556679725647,None,867.4388834953307,869.4391269683838,Die Oper endet mit dem Tod des Helden.,endet,868.8223747253418,None,871.5558747291565,None,884.0396276950836,885.0563628673553,885.4563829898834,None,./data/Subject_09/Session_00/Exp_data/2020_Jul_29_1653/rec_QA_run_01_block_000_trial_016.wav,09,00,English,A2,True,False,True,False,False,True,True,True,True,True,True,True,No,1,No,No,No,No,2020_Jul_29_1653,nibs_stage_1,3.2.3,60.0222097562651,
1,0,1,0,0,0,0,0,17,0,17,0,,,,,,,,,,,,,,,,,,,,,,,,,Listen to the question and speak out your answer!,888.5070450305939,None,888.489781665802,890.5066239833832,Die Katzen jagen Mäuse.,jagen,889.8899387359619,None,892.0900467872619,893.106773853302,905.090702676773,None,906.5075118541718,None,./data/Subject_09/Session_00/Exp_data/2020_Jul_29_1653/rec_QA_run_01_block_000_trial_017.wav,09,00,English,A2,True,False,True,False,False,True,True,True,True,True,True,True,No,1,No,No,No,No,2020_Jul_29_1653,nibs_stage_1,3.2.3,60.0222097562651,
1,0,1,0,0,0,0,0,18,0,18,0,,,,,,,,,,,,,,,,,,,,,,,,,Listen to the question and speak out your answer!,909.5576479434967,None,909.5408707141876,911.5577239990234,Ich würde sofort meinen Job kündigen und nie mehr arbeiten.,kündigen,910.9410187244415,914.4912309646606,914.8745807647705,915.8913638591766,926.1420287132263,None,927.5586519241333,None,./data/Subject_09/Session_00/Exp_data/2020_Jul_29_1653/rec_QA_run_01_block_000_trial_018.wav,09,00,English,A2,True,False,True,False,False,True,True,True,True,True,True,True,No,1,No,No,No,No,2020_Jul_29_1653,nibs_stage_1,3.2.3,60.0222097562651,
1,0,1,0,0,0,0,0,19,0,19,0,,,,,,,,,,,,,,,,,,,,,,,,,Listen to the question and speak out your answer!,930.6262938976288,None,930.6087445735931,932.625569820404,Kann ich mich um das Stipendium bewerben?,bewerben,932.008993768692,934.2923259735107,934.6423508167267,935.6590399742126,947.1763726711273,948.1930470466614,948.5931708812714,None,./data/Subject_09/Session_00/Exp_data/2020_Jul_29_1653/rec_QA_run_01_block_000_trial_019.wav,09,00,English,A2,True,False,True,False,False,True,True,True,True,True,True,True,No,1,No,No,No,No,2020_Jul_29_1653,nibs_stage_1,3.2.3,60.0222097562651,
1,0,1,0,0,0,0,0,20,0,20,0,,,,,,,,,,,,,,,,,,,,,,,,,Listen to the question and speak out your answer!,951.6599328517914,None,951.6265068531036,953.6599938869476,Ich höre sie den Namen Sam rufen.,rufen,953.0433086395263,None,955.6767746448517,None,968.2441996574402,None,969.6608319282532,None,./data/Subject_09/Session_00/Exp_data/2020_Jul_29_1653/rec_QA_run_01_block_000_trial_020.wav,09,00,English,A2,True,False,True,False,False,True,True,True,True,True,True,True,No,1,No,No,No,No,2020_Jul_29_1653,nibs_stage_1,3.2.3,60.0222097562651,
1,0,1,0,0,0,0,0,21,0,21,0,,,,,,,,,,,,,,,,,,,,,,,,,Listen to the question and speak out your answer!,972.66086602211,None,972.6442610263824,974.6610109806061,Sein Versprechen klingt glaubwürdig.,klingt,974.0443936824798,None,976.7111157417297,None,989.2450646400451,990.2619090080261,990.6617269515991,None,./data/Subject_09/Session_00/Exp_data/2020_Jul_29_1653/rec_QA_run_01_block_000_trial_021.wav,09,00,English,A2,True,False,True,False,False,True,True,True,True,True,True,True,No,1,No,No,No,No,2020_Jul_29_1653,nibs_stage_1,3.2.3,60.0222097562651,
1,0,1,0,0,0,0,0,22,0,22,0,,,,,,,,,,,,,,,,,,,,,,,,,Listen to the question and speak out your answer!,993.712296962738,None,993.6952467441558,995.712103843689,Die Verkäuferin beantwortete meine Fragen und konnte mich beraten.,beraten,995.0953728199005,None,999.5957116127014,None,1010.296205663681,None,1011.7129390239716,None,./data/Subject_09/Session_00/Exp_data/2020_Jul_29_1653/rec_QA_run_01_block_000_trial_022.wav,09,00,English,A2,True,False,True,False,False,True,True,True,True,True,True,True,No,1,No,No,No,No,2020_Jul_29_1653,nibs_stage_1,3.2.3,60.0222097562651,
1,0,1,0,0,0,0,0,23,0,23,0,,,,,,,,,,,,,,,,,,,,,,,,,Listen to the question and speak out your answer!,1014.7801148891449,None,1014.7630204677581,1016.7798490524292,Der Regenbogen besteht aus vielen Farben.,besteht,1016.1631666660309,1018.8799879550934,1019.2299887180328,1020.2467050552368,1031.363960647583,None,1032.7807159423828,None,./data/Subject_09/Session_00/Exp_data/2020_Jul_29_1653/rec_QA_run_01_block_000_trial_023.wav,09,00,English,A2,True,False,True,False,False,True,True,True,True,True,True,True,No,1,No,No,No,No,2020_Jul_29_1653,nibs_stage_1,3.2.3,60.0222097562651,
1,0,1,0,0,0,0,0,24,0,24,0,,,,,,,,,,,,,,,,,,,,,,,,,Listen to the question and speak out your answer!,1035.83167386055,None,1035.8140976905825,1037.830950975418,"Du kannst den Hund streicheln, er wird dich nicht beißen.",beißen,1037.2142716884614,1040.2313179969788,1040.6144477367402,None,1052.415050649643,None,1053.8317029476166,None,./data/Subject_09/Session_00/Exp_data/2020_Jul_29_1653/rec_QA_run_01_block_000_trial_024.wav,09,00,English,A2,True,False,True,False,False,True,True,True,True,True,True,True,No,1,No,No,No,No,2020_Jul_29_1653,nibs_stage_1,3.2.3,60.0222097562651,
1,0,1,0,0,0,0,0,,,,,,,,,,,,,,,,,,1057.8821020126343,None,,,,,,,,,,,,,,,,,,,,,,,,,,09,00,English,A2,True,False,True,False,False,True,True,True,True,True,True,True,No,1,No,No,No,No,2020_Jul_29_1653,nibs_stage_1,3.2.3,60.0222097562651,
1,0,1,0,1,0,1,0,0,0,0,0,,,,,,,,,,,,,,,,,,,,,,,,,Listen to the question and speak out your answer!,1074.9664900302887,None,1074.9327519893648,1076.9663388729095,"Doris ist leider zu spät gekommen, die Apotheke hat heute schon geschlossen.",geschlossen,1076.349649810791,None,1081.416563653946,1082.43328499794,1091.5504328250886,None,1092.967167854309,None,./data/Subject_09/Session_00/Exp_data/2020_Jul_29_1653/rec_QA_run_01_block_001_trial_000.wav,09,00,English,A2,True,False,True,False,False,True,True,True,True,True,True,True,No,1,No,No,No,No,2020_Jul_29_1653,nibs_stage_1,3.2.3,60.0222097562651,
1,0,1,0,1,0,1,0,1,0,1,0,,,,,,,,,,,,,,,,,,,,,,,,,Listen to the question and speak out your answer!,1096.0021958351135,None,1095.9839086055756,1098.001049041748,Der Schmied klopft immer wieder mit dem Hammer auf das heiße Eisen.,klopft,1097.384094619751,1101.0009169578552,1101.384270811081,1102.4010000228882,1112.5515276432038,1113.568114042282,1113.9682228565216,None,./data/Subject_09/Session_00/Exp_data/2020_Jul_29_1653/rec_QA_run_01_block_001_trial_001.wav,09,00,English,A2,True,False,True,False,False,True,True,True,True,True,True,True,No,1,No,No,No,No,2020_Jul_29_1653,nibs_stage_1,3.2.3,60.0222097562651,
1,0,1,0,1,0,1,0,2,0,2,0,,,,,,,,,,,,,,,,,,,,,,,,,Listen to the question and speak out your answer!,1117.0353899002075,None,1117.0183336257935,1119.0353119373322,Willi möchte gerne an der Universität Informatik studieren.,studieren,1118.4184836387635,None,1122.6520697116853,None,1133.6192976474763,None,1135.0361268520355,None,./data/Subject_09/Session_00/Exp_data/2020_Jul_29_1653/rec_QA_run_01_block_001_trial_002.wav,09,00,English,A2,True,False,True,False,False,True,True,True,True,True,True,True,No,1,No,No,No,No,2020_Jul_29_1653,nibs_stage_1,3.2.3,60.0222097562651,
1,0,1,0,1,0,1,0,3,0,3,0,,,,,,,,,,,,,,,,,,,,,,,,,Listen to the question and speak out your answer!,1138.0704228878021,None,1138.0527774810791,1140.0696229934692,Die Reparatur wird um ein hundert Euro kosten.,kosten,1139.419713640213,1142.3030579090118,1142.7197667598725,None,1154.6203907966615,1155.6371049880981,1156.037134885788,None,./data/Subject_09/Session_00/Exp_data/2020_Jul_29_1653/rec_QA_run_01_block_001_trial_003.wav,09,00,English,A2,True,False,True,False,False,True,True,True,True,True,True,True,No,1,No,No,No,No,2020_Jul_29_1653,nibs_stage_1,3.2.3,60.0222097562651,
1,0,1,0,1,0,1,0,4,0,4,0,,,,,,,,,,,,,,,,,,,,,,,,,Listen to the question and speak out your answer!,1159.1057360172272,None,1159.087215614319,1161.1040489673615,"Ich wusste die Antwort nicht, also musste ich raten.",raten,1160.487350845337,None,1163.9208697319032,None,1175.6713928222657,None,1177.0882349014282,None,./data/Subject_09/Session_00/Exp_data/2020_Jul_29_1653/rec_QA_run_01_block_001_trial_004.wav,09,00,English,A2,True,False,True,False,False,True,True,True,True,True,True,True,No,1,No,No,No,No,2020_Jul_29_1653,nibs_stage_1,3.2.3,60.0222097562651,
1,0,1,0,1,0,1,0,5,0,5,0,,,,,,,,,,,,,,,,,,,,,,,,,Listen to the question and speak out your answer!,1180.1553649902344,None,1180.1382276535035,1182.1551630496979,Wir müssen uns beeilen oder wir verpassen unseren Zug.,beeilen,1181.505135679245,1184.8553178310394,1185.2719987869264,None,1196.705916786194,1197.722627878189,1198.12264585495,None,./data/Subject_09/Session_00/Exp_data/2020_Jul_29_1653/rec_QA_run_01_block_001_trial_005.wav,09,00,English,A2,True,False,True,False,False,True,True,True,True,True,True,True,No,1,No,No,No,No,2020_Jul_29_1653,nibs_stage_1,3.2.3,60.0222097562651,
1,0,1,0,1,0,1,0,6,0,6,0,,,,,,,,,,,,,,,,,,,,,,,,,Listen to the question and speak out your answer!,1201.190218925476,None,1201.1728565216065,1203.189591884613,"Siehst du! Ich habe dir gesagt, dass es regnen würde.",gesagt,1202.572950744629,1205.989727973938,1206.3732027053834,None,1217.7736867904664,1218.7903950214386,1219.190444946289,None,./data/Subject_09/Session_00/Exp_data/2020_Jul_29_1653/rec_QA_run_01_block_001_trial_006.wav,09,00,English,A2,True,False,True,False,False,True,True,True,True,True,True,True,No,1,No,No,No,No,2020_Jul_29_1653,nibs_stage_1,3.2.3,60.0222097562651,
1,0,1,0,1,0,1,0,7,0,7,0,,,,,,,,,,,,,,,,,,,,,,,,,Listen to the question and speak out your answer!,1222.240532875061,None,1222.2238266944887,1224.240777015686,Der Dieb wurde für sein Verbrechen bestraft.,bestraft,1223.6241237163545,None,1226.590894842148,None,1238.8247977733613,1239.8415999412537,1240.2416169643402,None,./data/Subject_09/Session_00/Exp_data/2020_Jul_29_1653/rec_QA_run_01_block_001_trial_007.wav,09,00,English,A2,True,False,True,False,False,True,True,True,True,True,True,True,No,1,No,No,No,No,2020_Jul_29_1653,nibs_stage_1,3.2.3,60.0222097562651,
1,0,1,0,1,0,1,0,8,0,8,0,,,,,,,,,,,,,,,,,,,,,,,,,Listen to the question and speak out your answer!,1243.3096809387207,None,1243.2916125774384,1245.3085658550262,Die äußeren Planeten bestehen aus Gas.,bestehen,1244.6917666435243,1247.4421429634094,1247.8253566265107,None,1259.8926388263703,None,1261.3095798492432,None,./data/Subject_09/Session_00/Exp_data/2020_Jul_29_1653/rec_QA_run_01_block_001_trial_008.wav,09,00,English,A2,True,False,True,False,False,True,True,True,True,True,True,True,No,1,No,No,No,No,2020_Jul_29_1653,nibs_stage_1,3.2.3,60.0222097562651,
1,0,1,0,1,0,1,0,9,0,9,0,,,,,,,,,,,,,,,,,,,,,,,,,Listen to the question and speak out your answer!,1264.3777589797974,None,1264.3594536304474,1266.3762979507446,In Wien tanzt man gerne Walzer.,tanzt,1265.7596127033235,None,1268.226409816742,None,1280.9604646205903,None,1282.3770689964294,None,./data/Subject_09/Session_00/Exp_data/2020_Jul_29_1653/rec_QA_run_01_block_001_trial_009.wav,09,00,English,A2,True,False,True,False,False,True,True,True,True,True,True,True,No,1,No,No,No,No,2020_Jul_29_1653,nibs_stage_1,3.2.3,60.0222097562651,
1,0,1,0,1,0,1,0,10,0,10,0,,,,,,,,,,,,,,,,,,,,,,,,,Listen to the question and speak out your answer!,1285.445634841919,None,1285.4272646427155,1287.4440269470215,Die kluge Gebäudekonstruktion kann das Haus vor Windschäden schützen.,schützen,1286.8273977279664,1290.9444489479065,1291.327706718445,1292.3442039489746,1302.0281366348268,None,1303.4448359012604,None,./data/Subject_09/Session_00/Exp_data/2020_Jul_29_1653/rec_QA_run_01_block_001_trial_010.wav,09,00,English,A2,True,False,True,False,False,True,True,True,True,True,True,True,No,1,No,No,No,No,2020_Jul_29_1653,nibs_stage_1,3.2.3,60.0222097562651,
1,0,1,0,1,0,1,0,11,0,11,0,,,,,,,,,,,,,,,,,,,,,,,,,Listen to the question and speak out your answer!,1306.5125079154968,None,1306.4949035167695,1308.5117628574371,Dieser Bus bringt dich zum Strand.,bringt,1307.8950737953187,None,1310.3285538196565,None,1323.095880651474,None,1324.5126149654388,None,./data/Subject_09/Session_00/Exp_data/2020_Jul_29_1653/rec_QA_run_01_block_001_trial_011.wav,09,00,English,A2,True,False,True,False,False,True,True,True,True,True,True,True,No,1,No,No,No,No,2020_Jul_29_1653,nibs_stage_1,3.2.3,60.0222097562651,
1,0,1,0,1,0,1,0,12,0,12,0,,,,,,,,,,,,,,,,,,,,,,,,,Listen to the question and speak out your answer!,1327.5798089504242,None,1327.5626835346222,1329.5795500278473,Die Bergarbeiter fuhren jeden Tag in die Grube.,fuhren,1328.9628826618195,1332.1463890075684,1332.5296956539155,1333.5463349819183,1344.1636456489564,None,1345.5804679393768,None,./data/Subject_09/Session_00/Exp_data/2020_Jul_29_1653/rec_QA_run_01_block_001_trial_012.wav,09,00,English,A2,True,False,True,False,False,True,True,True,True,True,True,True,No,1,No,No,No,No,2020_Jul_29_1653,nibs_stage_1,3.2.3,60.0222097562651,
1,0,1,0,1,0,1,0,13,0,13,0,,,,,,,,,,,,,,,,,,,,,,,,,Listen to the question and speak out your answer!,1348.6313889026642,None,1348.6137907981874,1350.6307079792023,Im ganzen Umkreis war kein Haus zu finden.,finden,1350.0139388084413,None,1353.180859708786,1354.1974928379059,1365.2147356510163,None,1366.6315150260925,None,./data/Subject_09/Session_00/Exp_data/2020_Jul_29_1653/rec_QA_run_01_block_001_trial_013.wav,09,00,English,A2,True,False,True,False,False,True,True,True,True,True,True,True,No,1,No,No,No,No,2020_Jul_29_1653,nibs_stage_1,3.2.3,60.0222097562651,
1,0,1,0,1,0,1,0,14,0,14,0,,,,,,,,,,,,,,,,,,,,,,,,,Listen to the question and speak out your answer!,1369.6987929344177,None,1369.6816205501557,1371.6984329223633,"Wir mussten ein amtliches Formular ausfüllen, als wir geheiratet haben.",ausfüllen,1371.0817157268525,None,1375.8152927398683,None,1386.2825047016145,1387.2992379665375,1387.6992828845978,None,./data/Subject_09/Session_00/Exp_data/2020_Jul_29_1653/rec_QA_run_01_block_001_trial_014.wav,09,00,English,A2,True,False,True,False,False,True,True,True,True,True,True,True,No,1,No,No,No,No,2020_Jul_29_1653,nibs_stage_1,3.2.3,60.0222097562651,
1,0,1,0,1,0,1,0,15,0,15,0,,,,,,,,,,,,,,,,,,,,,,,,,Listen to the question and speak out your answer!,1390.7828948497772,None,1390.766030406952,1392.7828679084778,"Ich darf Sie bitten, meinem Antrag zu entsprechen.",bitten,1392.1661666870118,None,1395.3663286209107,None,1407.3669587612153,1408.3836908340454,1408.7836940288544,None,./data/Subject_09/Session_00/Exp_data/2020_Jul_29_1653/rec_QA_run_01_block_001_trial_015.wav,09,00,English,A2,True,False,True,False,False,True,True,True,True,True,True,True,No,1,No,No,No,No,2020_Jul_29_1653,nibs_stage_1,3.2.3,60.0222097562651,
1,0,1,0,1,0,1,0,16,0,16,0,,,,,,,,,,,,,,,,,,,,,,,,,Listen to the question and speak out your answer!,1411.8514478206635,None,1411.8337566375733,1413.8506109714508,Wir haben die Buchung per E-Mail bestätigt.,bestätigt,1413.2339216709138,None,1416.1674248218537,None,1428.434733772278,None,1429.8515210151672,None,./data/Subject_09/Session_00/Exp_data/2020_Jul_29_1653/rec_QA_run_01_block_001_trial_016.wav,09,00,English,A2,True,False,True,False,False,True,True,True,True,True,True,True,No,1,No,No,No,No,2020_Jul_29_1653,nibs_stage_1,3.2.3,60.0222097562651,
1,0,1,0,1,0,1,0,17,0,17,0,,,,,,,,,,,,,,,,,,,,,,,,,Listen to the question and speak out your answer!,1432.9021399021149,None,1432.8848877429964,1434.901734828949,Der ganze Kurs bestand die Prüfung.,bestand,1434.2850498199464,None,1436.9518448352815,None,1449.4860447883607,None,1450.902575969696,None,./data/Subject_09/Session_00/Exp_data/2020_Jul_29_1653/rec_QA_run_01_block_001_trial_017.wav,09,00,English,A2,True,False,True,False,False,True,True,True,True,True,True,True,No,1,No,No,No,No,2020_Jul_29_1653,nibs_stage_1,3.2.3,60.0222097562651,
1,0,1,0,1,0,1,0,18,0,18,0,,,,,,,,,,,,,,,,,,,,,,,,,Listen to the question and speak out your answer!,1453.9696960449219,None,1453.9526495456696,1455.9696300029755,"In der Schule lernen die Kinder lesen, schreiben und rechnen.",lernen,1455.3528036117555,None,1459.4863528251649,None,1470.5536087989808,None,1471.9703569412231,None,./data/Subject_09/Session_00/Exp_data/2020_Jul_29_1653/rec_QA_run_01_block_001_trial_018.wav,09,00,English,A2,True,False,True,False,False,True,True,True,True,True,True,True,No,1,No,No,No,No,2020_Jul_29_1653,nibs_stage_1,3.2.3,60.0222097562651,
1,0,1,0,1,0,1,0,19,0,19,0,,,,,,,,,,,,,,,,,,,,,,,,,Listen to the question and speak out your answer!,1475.003921031952,None,1474.970415878296,1477.0039529800415,Ich koche die Kartoffeln für die Kartoffelsuppe.,koche,1476.3872436523438,None,1479.5874067783357,None,1491.588063621521,None,1493.0047779083252,None,./data/Subject_09/Session_00/Exp_data/2020_Jul_29_1653/rec_QA_run_01_block_001_trial_019.wav,09,00,English,A2,True,False,True,False,False,True,True,True,True,True,True,True,No,1,No,No,No,No,2020_Jul_29_1653,nibs_stage_1,3.2.3,60.0222097562651,
1,0,1,0,1,0,1,0,20,0,20,0,,,,,,,,,,,,,,,,,,,,,,,,,Listen to the question and speak out your answer!,1496.0382180213928,None,1496.0215065002442,1498.0383830070496,Das Eingreifen des Lehrers beendete den Streit.,beendete,1497.4216727256776,1500.5385029315948,1500.92196764946,None,1512.6224748134614,None,1514.039221048355,None,./data/Subject_09/Session_00/Exp_data/2020_Jul_29_1653/rec_QA_run_01_block_001_trial_020.wav,09,00,English,A2,True,False,True,False,False,True,True,True,True,True,True,True,No,1,No,No,No,No,2020_Jul_29_1653,nibs_stage_1,3.2.3,60.0222097562651,
1,0,1,0,1,0,1,0,21,0,21,0,,,,,,,,,,,,,,,,,,,,,,,,,Listen to the question and speak out your answer!,1517.1060960292816,None,1517.089295578003,1519.1062598228455,Er konnte auf alle Fragen des Quiz antworten.,antworten,1518.4894596576692,1521.2396910190582,1521.622949743271,None,1533.6903456687928,None,1535.1070878505707,None,./data/Subject_09/Session_00/Exp_data/2020_Jul_29_1653/rec_QA_run_01_block_001_trial_021.wav,09,00,English,A2,True,False,True,False,False,True,True,True,True,True,True,True,No,1,No,No,No,No,2020_Jul_29_1653,nibs_stage_1,3.2.3,60.0222097562651,
1,0,1,0,1,0,1,0,22,0,22,0,,,,,,,,,,,,,,,,,,,,,,,,,Listen to the question and speak out your answer!,1538.1577908992767,None,1538.1404967784883,1540.1572580337524,Plastik Müll belastet die Umwelt.,belastet,1539.540672683716,None,1542.3073808193208,None,1554.7414428234101,1555.7582948207855,1556.1580610275269,None,./data/Subject_09/Session_00/Exp_data/2020_Jul_29_1653/rec_QA_run_01_block_001_trial_022.wav,09,00,English,A2,True,False,True,False,False,True,True,True,True,True,True,True,No,1,No,No,No,No,2020_Jul_29_1653,nibs_stage_1,3.2.3,60.0222097562651,
1,0,1,0,1,0,1,0,23,0,23,0,,,,,,,,,,,,,,,,,,,,,,,,,Listen to the question and speak out your answer!,1559.2087709903717,None,1559.1915417194368,1561.2084589004517,Marco möchte den Brief zur Post bringen.,bringen,1560.5916656494142,None,1563.4252368450166,1564.4419529438019,1575.792476797104,None,1577.2092168331146,None,./data/Subject_09/Session_00/Exp_data/2020_Jul_29_1653/rec_QA_run_01_block_001_trial_023.wav,09,00,English,A2,True,False,True,False,False,True,True,True,True,True,True,True,No,1,No,No,No,No,2020_Jul_29_1653,nibs_stage_1,3.2.3,60.0222097562651,
1,0,1,0,1,0,1,0,24,0,24,0,,,,,,,,,,,,,,,,,,,,,,,,,Listen to the question and speak out your answer!,1580.2772698402405,None,1580.2592765808106,1582.2761590480804,"Kunden sollten Produkte sorgfältig prüfen, bevor sie sie kaufen.",prüfen,1581.6595067024232,None,1586.0930158138276,None,1596.860359811783,None,1598.2770030498505,None,./data/Subject_09/Session_00/Exp_data/2020_Jul_29_1653/rec_QA_run_01_block_001_trial_024.wav,09,00,English,A2,True,False,True,False,False,True,True,True,True,True,True,True,No,1,No,No,No,No,2020_Jul_29_1653,nibs_stage_1,3.2.3,60.0222097562651,
