artifact_trial.thisRepN,artifact_trial.thisTrialN,artifact_trial.thisN,artifact_trial.thisIndex,pre_trial.thisRepN,pre_trial.thisTrialN,pre_trial.thisN,pre_trial.thisIndex,instruction_text.text,instruction_text.started,instruction_text.stopped,instruction_cont.started,instruction_cont.stopped,Artifact_intro_title.started,Artifact_intro_title.stopped,Artifact_intro_text.text,Artifact_intro_text.started,Artifact_intro_text.stopped,Artifact_intro_audio.started,Artifact_intro_audio.stopped,Artifact_intro_cont.started,Artifact_intro_cont.stopped,Artifact_rec_text.text,Artifact_rec_text.started,Artifact_rec_text.stopped,Artifact_rec_beep_hint.started,Artifact_rec_beep_hint.stopped,Artifact_rec_action.started,Artifact_rec_action.stopped,Artifact_rec_beep_start.started,Artifact_rec_beep_start.stopped,Artifact_rec_recording.started,Artifact_rec_recording.stopped,Artifact_rec_beep_end.started,Artifact_rec_beep_end.stopped,Artifact_rec_break.started,Artifact_rec_break.stopped,Cali_de_pre_intro_title.started,Cali_de_pre_intro_title.stopped,Cali_de_pre_intro_text.text,Cali_de_pre_intro_text.started,Cali_de_pre_intro_text.stopped,Cali_de_pre_intro_audio.started,Cali_de_pre_intro_audio.stopped,Cali_de_pre_intro_cont.started,Cali_de_pre_intro_cont.stopped,Cali_de_pre_rec_text.text,Cali_de_pre_rec_text.started,Cali_de_pre_rec_text.stopped,Cali_de_pre_rec_beep_hint.started,Cali_de_pre_rec_beep_hint.stopped,Cali_de_pre_rec_question_text.text,Cali_de_pre_rec_question_text.started,Cali_de_pre_rec_question_text.stopped,Cali_de_pre_rec_beep_start.started,Cali_de_pre_rec_beep_start.stopped,Cali_de_pre_rec_beep_end.started,Cali_de_pre_rec_beep_end.stopped,Cali_de_pre_rec_break.started,Cali_de_pre_rec_break.stopped,filename,participant,session,First language,German level,Full_screen,Instruction,Intro,Artifact,Cali_pre,Fade_in_out,Artifact_within,Resting_State,QA,Pause,Cali_post,End,Breakpoint_Cali_pre_trial,Breakpoint_Run,Breakpoint_RS_block,Breakpoint_QA_block,Breakpoint_QA_trial,Breakpoint_Cali_post_trial,date,expName,psychopyVersion,frameRate,
0,0,0,0,,,,,"     Thank you for participating in the experiment: 

     Personalized non-invasive brain stimulation    
            for second language learning            
",23.452653169631958,None,38.43646502494812,None,39.63681602478027,None,"  - Task: Artifacts collection   
  - Please follow audio instruction              
",39.63681602478027,None,39.63679447174072,None,66.0212709903717,None,,68.05463814735413,None,68.03864541053773,70.03818011283875,69.4381076335907,None,72.83822765350342,73.83829617500305,74.2384246826172,84.23875498771667,84.63893761634827,None,86.0388400554657,87.03878617286682,,,,,,,,,,,,,,,,,,,,,,,,,09,00,English,A2,True,True,True,True,True,True,True,True,True,True,True,True,No,No,No,No,No,No,2020_Jul_29_1600,nibs_stage_1,3.2.3,59.9923334382241,
1,0,1,0,,,,,,,,,,,,,,,,,,,,90.07255911827087,None,90.05630650520325,92.05575609207153,91.43916358947754,None,94.83921065330506,None,96.23929061889649,106.23977899551392,106.63975348472596,None,108.03972601890564,109.03982305526733,,,,,,,,,,,,,,,,,,,,,,,,,09,00,English,A2,True,True,True,True,True,True,True,True,True,True,True,True,No,No,No,No,No,No,2020_Jul_29_1600,nibs_stage_1,3.2.3,59.9923334382241,
2,0,2,0,,,,,,,,,,,,,,,,,,,,112.09038615226746,None,112.07394256591797,114.07340002059937,113.45670952796937,None,116.85693969726563,117.85725212097168,118.25758447647095,128.25806403160095,128.6573926448822,None,130.0574550628662,131.05757808685303,,,,,,,,,,,,,,,,,,,,,,,,,09,00,English,A2,True,True,True,True,True,True,True,True,True,True,True,True,No,No,No,No,No,No,2020_Jul_29_1600,nibs_stage_1,3.2.3,59.9923334382241,
3,0,3,0,,,,,,,,,,,,,,,,,,,,134.12433505058289,None,134.10832290649415,136.10792112350464,135.49104657173157,None,138.8915556907654,139.8915569782257,140.2916325569153,150.29169702529907,150.69172253608704,None,152.09177017211914,153.09181118011475,,,,,,,,,,,,,,,,,,,,,,,,,09,00,English,A2,True,True,True,True,True,True,True,True,True,True,True,True,No,No,No,No,No,No,2020_Jul_29_1600,nibs_stage_1,3.2.3,59.9923334382241,
4,0,4,0,,,,,,,,,,,,,,,,,,,,156.14193606376648,None,156.12580742836,158.12533617019653,157.5087236404419,None,160.90886464118958,None,162.3092116355896,172.30936002731323,172.70939054489136,None,174.1094479560852,175.10971999168396,,,,,,,,,,,,,,,,,,,,,,,,,09,00,English,A2,True,True,True,True,True,True,True,True,True,True,True,True,No,No,No,No,No,No,2020_Jul_29_1600,nibs_stage_1,3.2.3,59.9923334382241,
5,0,5,0,,,,,,,,,,,,,,,,,,,,178.15998005867004,None,178.1436203956604,180.14304995536804,179.52649059295655,None,182.92664256095887,None,184.34313859939576,194.36040496826172,194.72704162597657,None,196.1271231174469,197.16029500961304,,,,,,,,,,,,,,,,,,,,,,,,,09,00,English,A2,True,True,True,True,True,True,True,True,True,True,True,True,No,No,No,No,No,No,2020_Jul_29_1600,nibs_stage_1,3.2.3,59.9923334382241,
6,0,6,0,,,,,,,,,,,,,,,,,,,,200.19393301010132,None,200.17769947052003,202.19385695457458,201.57714762687684,None,204.97742762565613,None,206.37738265991212,216.3944981098175,216.77785363197327,217.79457116127014,218.194580078125,219.22788310050964,,,,,,,,,,,,,,,,,,,,,,,,,09,00,English,A2,True,True,True,True,True,True,True,True,True,True,True,True,No,No,No,No,No,No,2020_Jul_29_1600,nibs_stage_1,3.2.3,59.9923334382241,
7,0,7,0,,,,,,,,,,,,,,,,,,,,222.2461371421814,None,222.22881798744203,224.2448651790619,223.6282567024231,226.64497303962708,227.028324508667,228.04504895210266,228.42852153778077,238.44577598571777,238.82888259887696,None,240.24559712409973,241.27914810180664,,,,,,,,,,,,,,,,,,,,,,,,,09,00,English,A2,True,True,True,True,True,True,True,True,True,True,True,True,No,No,No,No,No,No,2020_Jul_29_1600,nibs_stage_1,3.2.3,59.9923334382241,
8,0,8,0,,,,,,,,,,,,,,,,,,,,244.27970004081726,None,244.26307740211487,246.27921199798584,245.6625286579132,248.6793131828308,249.062677526474,None,250.46281661987305,260.47984313964844,260.8632346630096,None,262.27996015548706,263.3133771419525,,,,,,,,,,,,,,,,,,,,,,,,,09,00,English,A2,True,True,True,True,True,True,True,True,True,True,True,True,No,No,No,No,No,No,2020_Jul_29_1600,nibs_stage_1,3.2.3,59.9923334382241,
9,0,9,0,,,,,,,,,,,,,,,,,,,,266.3141121864319,None,266.29751958847044,268.3135390281677,267.6969114780426,270.7138831615448,271.09705367088316,None,272.4971155166626,282.5142631530762,282.89759554862974,283.9144010543823,284.3143529891968,285.34771704673767,,,,,,,,,,,,,,,,,,,,,,,,,09,00,English,A2,True,True,True,True,True,True,True,True,True,True,True,True,No,No,No,No,No,No,2020_Jul_29_1600,nibs_stage_1,3.2.3,59.9923334382241,
10,0,10,0,,,,,,,,,,,,,,,,,,,,288.34836602211,None,288.33181443214414,290.3479540348053,289.7312084674835,None,293.1315945625305,None,294.53149952888486,304.54862117767334,304.932009601593,305.9486131668091,306.34870314598083,307.3821060657501,,,,,,,,,,,,,,,,,,,,,,,,,09,00,English,A2,True,True,True,True,True,True,True,True,True,True,True,True,No,No,No,No,No,No,2020_Jul_29_1600,nibs_stage_1,3.2.3,59.9923334382241,
11,0,11,0,,,,,,,,,,,,,,,,,,,,310.3828389644623,None,310.36618247032163,312.3823411464691,311.76580967903135,None,315.1657845020294,316.1824951171875,316.5658556461334,326.58300399780273,326.96636452674863,None,328.3830931186676,329.4164819717407,,,,,,,,,,,,,,,,,,,,,,,,,09,00,English,A2,True,True,True,True,True,True,True,True,True,True,True,True,No,No,No,No,No,No,2020_Jul_29_1600,nibs_stage_1,3.2.3,59.9923334382241,
12,0,12,0,,,,,,,,,,,,,,,,,,,,332.41799998283386,None,332.4005714893341,334.41672015190125,333.8001414775848,336.8167350292206,337.20018258094785,None,338.60026659965513,348.61753511428833,349.00076856613157,None,350.41749906539917,351.4509971141815,,,,,,,,,,,,,,,,,,,,,,,,,09,00,English,A2,True,True,True,True,True,True,True,True,True,True,True,True,No,No,No,No,No,No,2020_Jul_29_1600,nibs_stage_1,3.2.3,59.9923334382241,
13,0,13,0,,,,,,,,,,,,,,,,,,,,354.45155596733093,None,354.43496241569517,356.4512221813202,355.834410572052,None,359.2345806598663,None,360.6346305847168,370.65169501304626,371.0351656913757,None,372.45191407203674,373.485267162323,,,,,,,,,,,,,,,,,,,,,,,,,09,00,English,A2,True,True,True,True,True,True,True,True,True,True,True,True,No,No,No,No,No,No,2020_Jul_29_1600,nibs_stage_1,3.2.3,59.9923334382241,
14,0,14,0,,,,,,,,,,,,,,,,,,,,376.4862861633301,None,376.46925654411314,378.48547410964966,377.86881055831907,None,381.2689706325531,None,382.66903748512266,392.68621301651,393.069590473175,394.0861961841583,394.4862780570984,395.51965403556824,,,,,,,,,,,,,,,,,,,,,,,,,09,00,English,A2,True,True,True,True,True,True,True,True,True,True,True,True,No,No,No,No,No,No,2020_Jul_29_1600,nibs_stage_1,3.2.3,59.9923334382241,
,,,,0,0,0,0,,,,,,,,,,,,,,,,,,,,,,,,,,,,,,399.5366179943085,429.5713310241699,"  - Task: Read out the displayed German sentence   
  - Melodious beep sound: Trial start              
  - Beep sound with increasing pitch: Rec. start   
  - Beep sound with decreasing pitch: Rec. finish  
",399.5366179943085,429.5713310241699,399.504124546051,None,428.95461106300354,None,,432.1716401576996,None,432.1387444972992,434.1715440750122,"Leider sieht Ihr Bein gebrochen aus, aber das Knie ist okay.",433.57151103019714,451.2059450149536,434.95491948127744,None,447.72223057746885,None,449.13893699645996,451.1725471019745,./data/Subject_09/Session_00/Exp_data/2020_Jul_29_1600/rec_cali_de_pre_trial_000.wav,09,00,English,A2,True,True,True,True,True,True,True,True,True,True,True,True,No,No,No,No,No,No,2020_Jul_29_1600,nibs_stage_1,3.2.3,59.9923334382241,
,,,,1,0,1,0,,,,,,,,,,,,,,,,,,,,,,,,,,,,,,,,,,,,,,,,454.18985509872437,None,454.1565095424652,456.1892931461334,Die Zähne werden geputzt und der Bart rasiert.,455.5891740322113,473.2234699726105,456.97267069816587,None,469.7733055591583,None,471.1900579929352,473.2234699726105,./data/Subject_09/Session_00/Exp_data/2020_Jul_29_1600/rec_cali_de_pre_trial_001.wav,09,00,English,A2,True,True,True,True,True,True,True,True,True,True,True,True,No,No,No,No,No,No,2020_Jul_29_1600,nibs_stage_1,3.2.3,59.9923334382241,
,,,,2,0,2,0,,,,,,,,,,,,,,,,,,,,,,,,,,,,,,,,,,,,,,,,476.2070209980011,None,476.1742595672607,478.20715403556824,Manche Menschen essen mehr Fleisch als Gemüse.,477.60700607299805,495.2412850856781,478.99040760993955,None,491.79117765426633,492.8077630996704,493.2077829837799,495.2412850856781,./data/Subject_09/Session_00/Exp_data/2020_Jul_29_1600/rec_cali_de_pre_trial_002.wav,09,00,English,A2,True,True,True,True,True,True,True,True,True,True,True,True,No,No,No,No,No,No,2020_Jul_29_1600,nibs_stage_1,3.2.3,59.9923334382241,
,,,,3,0,3,0,,,,,,,,,,,,,,,,,,,,,,,,,,,,,,,,,,,,,,,,498.2253119945526,None,498.19196858406065,500.2248160839081,Können Sie fünfzig Euro wechseln?,499.6247911453247,517.2589931488037,501.0081576347351,None,513.8089555740356,514.8255231380463,515.2256591320038,517.2589931488037,./data/Subject_09/Session_00/Exp_data/2020_Jul_29_1600/rec_cali_de_pre_trial_003.wav,09,00,English,A2,True,True,True,True,True,True,True,True,True,True,True,True,No,No,No,No,No,No,2020_Jul_29_1600,nibs_stage_1,3.2.3,59.9923334382241,
,,,,4,0,4,0,,,,,,,,,,,,,,,,,,,,,,,,,,,,,,,,,,,,,,,,520.2425589561462,None,520.2096494674682,522.2425651550293,Felix muss schon um sechs Uhr früh aufstehen.,521.6091871261597,539.243399143219,522.9925896167755,None,535.7933386802673,None,537.2099421024323,539.243399143219,./data/Subject_09/Session_00/Exp_data/2020_Jul_29_1600/rec_cali_de_pre_trial_004.wav,09,00,English,A2,True,True,True,True,True,True,True,True,True,True,True,True,No,No,No,No,No,No,2020_Jul_29_1600,nibs_stage_1,3.2.3,59.9923334382241,
,,,,5,0,5,0,,,,,,,,,,,,,,,,,,,,,,,,,,,,,,,,,,,,,,,,542.2607760429382,None,542.2275325298309,544.2603130340576,Können Sie mir auf Hundert Euro herausgeben?,543.6602880954742,561.294527053833,545.0437084674835,546.0606679916382,557.8443604946136,None,559.2613451480865,561.294527053833,./data/Subject_09/Session_00/Exp_data/2020_Jul_29_1600/rec_cali_de_pre_trial_005.wav,09,00,English,A2,True,True,True,True,True,True,True,True,True,True,True,True,No,No,No,No,No,No,2020_Jul_29_1600,nibs_stage_1,3.2.3,59.9923334382241,
,,,,6,0,6,0,,,,,,,,,,,,,,,,,,,,,,,,,,,,,,,,,,,,,,,,564.2786321640015,None,564.245276594162,566.2780780792236,"In Europa gibt es vier Jahrezeiten, am Zentralafrika nur eine.",565.6780850887299,583.3122651576996,567.0615195274353,568.0781950950623,579.8620916843414,580.8788721561432,581.2788531780243,583.3122651576996,./data/Subject_09/Session_00/Exp_data/2020_Jul_29_1600/rec_cali_de_pre_trial_006.wav,09,00,English,A2,True,True,True,True,True,True,True,True,True,True,True,True,No,No,No,No,No,No,2020_Jul_29_1600,nibs_stage_1,3.2.3,59.9923334382241,
,,,,7,0,7,0,,,,,,,,,,,,,,,,,,,,,,,,,,,,,,,,,,,,,,,,586.2963910102844,None,586.2631825447082,588.2958471775055,Kannst du bitte die Wäsche in die Sonne hängen?,587.6958000659943,605.3300549983978,589.07915558815,None,601.87989153862,602.896497964859,603.2966029644012,605.3300549983978,./data/Subject_09/Session_00/Exp_data/2020_Jul_29_1600/rec_cali_de_pre_trial_007.wav,09,00,English,A2,True,True,True,True,True,True,True,True,True,True,True,True,No,No,No,No,No,No,2020_Jul_29_1600,nibs_stage_1,3.2.3,59.9923334382241,
,,,,8,0,8,0,,,,,,,,,,,,,,,,,,,,,,,,,,,,,,,,,,,,,,,,608.3141310214996,None,608.2808355331421,610.3135471343994,In der Küche steht noch das schumutzige Geschirr vom Frühstück.,609.7135970592499,627.3479330539703,611.0970055103302,612.1137399673462,623.8975655078888,None,625.3144249916077,627.3479330539703,./data/Subject_09/Session_00/Exp_data/2020_Jul_29_1600/rec_cali_de_pre_trial_008.wav,09,00,English,A2,True,True,True,True,True,True,True,True,True,True,True,True,No,No,No,No,No,No,2020_Jul_29_1600,nibs_stage_1,3.2.3,59.9923334382241,
,,,,9,0,9,0,,,,,,,,,,,,,,,,,,,,,,,,,,,,,,,,,,,,,,,,630.3313121795654,None,630.2985824584961,632.3314089775085,Sonja nimmt ihren Tee mit Milch und Zucker.,631.7313821315765,649.365650177002,633.1147805690765,None,645.8822704792022,None,647.332316160202,649.365650177002,./data/Subject_09/Session_00/Exp_data/2020_Jul_29_1600/rec_cali_de_pre_trial_009.wav,09,00,English,A2,True,True,True,True,True,True,True,True,True,True,True,True,No,No,No,No,No,No,2020_Jul_29_1600,nibs_stage_1,3.2.3,59.9923334382241,
