run.thisRepN,run.thisTrialN,run.thisN,run.thisIndex,artifact_trial.thisRepN,artifact_trial.thisTrialN,artifact_trial.thisN,artifact_trial.thisIndex,QA_block.thisRepN,QA_block.thisTrialN,QA_block.thisN,QA_block.thisIndex,QA_trial.thisRepN,QA_trial.thisTrialN,QA_trial.thisN,QA_trial.thisIndex,fade_in_text.text,fade_in_text.started,fade_in_text.stopped,Artifact_intro_title.started,Artifact_intro_title.stopped,Artifact_intro_text.text,Artifact_intro_text.started,Artifact_intro_text.stopped,Artifact_intro_audio.started,Artifact_intro_audio.stopped,Artifact_intro_cont.started,Artifact_intro_cont.stopped,Artifact_rec_text.text,Artifact_rec_text.started,Artifact_rec_text.stopped,Artifact_rec_beep_hint.started,Artifact_rec_beep_hint.stopped,Artifact_rec_action.started,Artifact_rec_action.stopped,Artifact_rec_beep_start.started,Artifact_rec_beep_start.stopped,Artifact_rec_recording.started,Artifact_rec_recording.stopped,Artifact_rec_beep_end.started,Artifact_rec_beep_end.stopped,Artifact_rec_break.started,Artifact_rec_break.stopped,RS_intro_title.started,RS_intro_title.stopped,RS_intro_text.text,RS_intro_text.started,RS_intro_text.stopped,RS_intro_audio.started,RS_intro_audio.stopped,RS_rec_text.text,RS_rec_text.started,RS_rec_text.stopped,Pause_cont.started,Pause_cont.stopped,QA_intro_title.started,QA_intro_title.stopped,QA_intro_text.text,QA_intro_text.started,QA_intro_text.stopped,QA_intro_audio.started,QA_intro_audio.stopped,QA_intro_cont.started,QA_intro_cont.stopped,QA_rec_text.text,QA_rec_text.started,QA_rec_text.stopped,QA_rec_beep_hint.started,QA_rec_beep_hint.stopped,QA_rec_question.sen_text,QA_rec_question.cen_text,QA_rec_question.started,QA_rec_question.stopped,QA_rec_beep_start.started,QA_rec_beep_start.stopped,QA_rec_beep_end.started,QA_rec_beep_end.stopped,QA_rec_break.started,QA_rec_break.stopped,filename,participant,session,First language,German level,Full_screen,Instruction,Intro,Artifact,Cali_pre,Fade_in_out,Artifact_within,Resting_State,QA,Pause,Cali_post,End,Breakpoint_Cali_pre_trial,Breakpoint_Run,Breakpoint_RS_block,Breakpoint_QA_block,Breakpoint_QA_trial,Breakpoint_Cali_post_trial,date,expName,psychopyVersion,frameRate,
2,0,2,0,0,0,0,0,,,,,,,,,Please remain seated until further instruction via the earphone.,55.981390953063965,None,58.01501393318176,None,"  - Task: Artifacts collection   
  - Please follow audio instruction              
",58.01501393318176,None,57.997784519195555,None,84.39960193634033,None,,86.59971213340759,None,86.58258857727051,88.58307909965515,87.96641340255738,None,91.36656847000123,92.36662912368774,92.7666434288025,102.76743793487549,103.16739835739136,104.16747212409973,104.56767702102661,105.56745600700378,,,,,,,,,,,,,,,,,,,,,,,,,,,,,,,,,,,,,,09,00,English,A2,True,False,True,False,False,True,True,True,True,True,True,True,No,2,No,No,No,No,2020_Jul_29_1738,nibs_stage_1,3.2.3,59.97106041281806,
2,0,2,0,1,0,1,0,,,,,,,,,,,,,,,,,,,,,,108.6176450252533,None,108.60063257217408,110.60111904144287,109.98442640304566,None,113.38453354835511,114.38468194007874,114.78476848602295,124.78540110588074,125.18526139259339,None,126.58527612686157,127.5853259563446,,,,,,,,,,,,,,,,,,,,,,,,,,,,,,,,,,,,,,09,00,English,A2,True,False,True,False,False,True,True,True,True,True,True,True,No,2,No,No,No,No,2020_Jul_29_1738,nibs_stage_1,3.2.3,59.97106041281806,
2,0,2,0,2,0,2,0,,,,,,,,,,,,,,,,,,,,,,130.6361050605774,None,130.61846652030945,132.6188449859619,132.0022665500641,None,135.40245451927186,None,136.8026725292206,146.80300498008728,147.20302333831788,None,148.60315704345703,149.6031529903412,,,,,,,,,,,,,,,,,,,,,,,,,,,,,,,,,,,,,,09,00,English,A2,True,False,True,False,False,True,True,True,True,True,True,True,No,2,No,No,No,No,2020_Jul_29_1738,nibs_stage_1,3.2.3,59.97106041281806,
2,0,2,0,3,0,3,0,,,,,,,,,,,,,,,,,,,,,,152.65336894989014,None,152.6365915775299,154.63668513298035,154.02006449699402,None,157.42025747299195,None,158.82031931877137,168.82083892822266,169.22150745391846,170.22084403038025,170.62088298797607,171.62098002433777,,,,,,,,,,,,,,,,,,,,,,,,,,,,,,,,,,,,,,09,00,English,A2,True,False,True,False,False,True,True,True,True,True,True,True,No,2,No,No,No,No,2020_Jul_29_1738,nibs_stage_1,3.2.3,59.97106041281806,
2,0,2,0,4,0,4,0,,,,,,,,,,,,,,,,,,,,,,174.671452999115,None,174.65408148765565,176.65490913391113,176.03790154457093,None,179.43816437721253,180.43815112113953,180.8382073879242,190.83886098861694,191.23887839317322,None,192.63879013061523,193.63881492614746,,,,,,,,,,,,,,,,,,,,,,,,,,,,,,,,,,,,,,09,00,English,A2,True,False,True,False,False,True,True,True,True,True,True,True,No,2,No,No,No,No,2020_Jul_29_1738,nibs_stage_1,3.2.3,59.97106041281806,
2,0,2,0,5,0,5,0,,,,,,,,,,,,,,,,,,,,,,196.6890411376953,None,196.67187752723694,198.67233800888062,198.05572237968445,None,201.45589437484742,202.45658802986145,202.85615148544312,212.85660910606384,213.25652041435242,None,214.65660691261292,215.65664100646973,,,,,,,,,,,,,,,,,,,,,,,,,,,,,,,,,,,,,,09,00,English,A2,True,False,True,False,False,True,True,True,True,True,True,True,No,2,No,No,No,No,2020_Jul_29_1738,nibs_stage_1,3.2.3,59.97106041281806,
2,0,2,0,6,0,6,0,,,,,,,,,,,,,,,,,,,,,,218.70681309700012,None,218.68993368148804,220.69017910957336,220.0735303401947,None,223.4736973285675,None,224.87379446029664,234.8743131160736,235.27436437606812,None,236.67462706565857,237.67452001571655,,,,,,,,,,,,,,,,,,,,,,,,,,,,,,,,,,,,,,09,00,English,A2,True,False,True,False,False,True,True,True,True,True,True,True,No,2,No,No,No,No,2020_Jul_29_1738,nibs_stage_1,3.2.3,59.97106041281806,
2,0,2,0,7,0,7,0,,,,,,,,,,,,,,,,,,,,,,240.72466897964478,None,240.70764865875245,242.70809602737427,242.09130849838257,245.09144401550293,245.49146642684937,246.49162602424622,246.8916114807129,256.89216208457947,257.2921694755554,None,258.6925411224365,259.6923019886017,,,,,,,,,,,,,,,,,,,,,,,,,,,,,,,,,,,,,,09,00,English,A2,True,False,True,False,False,True,True,True,True,True,True,True,No,2,No,No,No,No,2020_Jul_29_1738,nibs_stage_1,3.2.3,59.97106041281806,
2,0,2,0,8,0,8,0,,,,,,,,,,,,,,,,,,,,,,262.7423379421234,None,262.72560849189756,264.7258040904999,264.1089793682098,267.10914301872253,267.5090784072876,268.50923109054565,268.90922846794126,278.90978813171387,279.3097645282745,None,280.70999908447266,281.70991110801697,,,,,,,,,,,,,,,,,,,,,,,,,,,,,,,,,,,,,,09,00,English,A2,True,False,True,False,False,True,True,True,True,True,True,True,No,2,No,No,No,No,2020_Jul_29_1738,nibs_stage_1,3.2.3,59.97106041281806,
2,0,2,0,9,0,9,0,,,,,,,,,,,,,,,,,,,,,,284.76038813591003,None,284.74302568435667,286.7437210083008,286.12703146934507,289.12720108032227,289.52711644172666,290.52726912498474,290.92727437019346,300.92759013175964,301.3275324344635,None,302.7276699542999,303.72824692726135,,,,,,,,,,,,,,,,,,,,,,,,,,,,,,,,,,,,,,09,00,English,A2,True,False,True,False,False,True,True,True,True,True,True,True,No,2,No,No,No,No,2020_Jul_29_1738,nibs_stage_1,3.2.3,59.97106041281806,
2,0,2,0,10,0,10,0,,,,,,,,,,,,,,,,,,,,,,306.7778739929199,None,306.76099863052366,308.7613310813904,308.1447323799133,None,311.544784450531,None,312.9454044342041,322.9454491138458,323.3454443454742,None,324.7454249858856,325.745600938797,,,,,,,,,,,,,,,,,,,,,,,,,,,,,,,,,,,,,,09,00,English,A2,True,False,True,False,False,True,True,True,True,True,True,True,No,2,No,No,No,No,2020_Jul_29_1738,nibs_stage_1,3.2.3,59.97106041281806,
2,0,2,0,11,0,11,0,,,,,,,,,,,,,,,,,,,,,,328.79587602615356,None,328.77868547439573,330.7792110443115,330.16247334480283,None,333.5628053188324,None,334.96279134750364,344.963534116745,345.3635443687439,None,346.76393604278564,347.76340913772583,,,,,,,,,,,,,,,,,,,,,,,,,,,,,,,,,,,,,,09,00,English,A2,True,False,True,False,False,True,True,True,True,True,True,True,No,2,No,No,No,No,2020_Jul_29_1738,nibs_stage_1,3.2.3,59.97106041281806,
2,0,2,0,12,0,12,0,,,,,,,,,,,,,,,,,,,,,,350.81364011764526,None,350.7966016769409,352.79698395729065,352.1802925109863,355.18044209480286,355.5809413433075,None,356.98082246780393,366.98105096817017,367.3816493988037,None,368.78174591064453,369.7812080383301,,,,,,,,,,,,,,,,,,,,,,,,,,,,,,,,,,,,,,09,00,English,A2,True,False,True,False,False,True,True,True,True,True,True,True,No,2,No,No,No,No,2020_Jul_29_1738,nibs_stage_1,3.2.3,59.97106041281806,
2,0,2,0,13,0,13,0,,,,,,,,,,,,,,,,,,,,,,372.8319890499115,None,372.81462063789365,374.81476497650146,374.1980165481567,None,377.6150614261627,None,378.99945440292356,388.99893712997437,389.3989695549011,None,390.79891705513,391.7990520000458,,,,,,,,,,,,,,,,,,,,,,,,,,,,,,,,,,,,,,09,00,English,A2,True,False,True,False,False,True,True,True,True,True,True,True,No,2,No,No,No,No,2020_Jul_29_1738,nibs_stage_1,3.2.3,59.97106041281806,
2,0,2,0,14,0,14,0,,,,,,,,,,,,,,,,,,,,,,394.84928011894226,None,394.83289566040037,396.8328630924225,396.2161604404449,None,399.61701145172117,None,401.0164033412933,411.0170121192932,411.4170004367828,None,412.8336799144745,413.8337490558624,,,,,,,,,,,,,,,,,,,,,,,,,,,,,,,,,,,,,,09,00,English,A2,True,False,True,False,False,True,True,True,True,True,True,True,No,2,No,No,No,No,2020_Jul_29_1738,nibs_stage_1,3.2.3,59.97106041281806,
2,0,2,0,,,,,0,0,0,0,0,0,0,0,,,,,,,,,,,,,,,,,,,,,,,,,,,,624.3118669986725,None," - Task: Keep seated and relaxed with either      
             opening or closing eyes                  
 - Beep sound with decreasing pitch: Block finish 
",624.3118669986725,None,624.2944870471954,None,"Please keep relaxed and open your eyes.
Note: Blinking is allowed.",647.3469939231873,827.3721399307251,830.73907995224,None,844.7732229232788,None," - Task: Listen to the question& Speak out answer 
 - Melodious beep sound: Trial start              
 - Silent sound (blank): censored word            
 - Beep sound with increasing pitch: Rec. start   
 - Beep sound with decreasing pitch: Rec. finish  
",844.7732229232788,None,844.7556746482849,None,884.1416599750519,None,Listen to the question and speak out your answer!,887.2088029384613,None,887.1912469387054,889.1921629905701,Arbeitslos-sein bedeutet: man hat keinen Arbeits-Platz.,bedeutet,888.5922934055328,None,892.3925434589386,None,903.7926844596863,904.7927479743958,905.1927671432495,906.1930620670319,./data/Subject_09/Session_00/Exp_data/2020_Jul_29_1738/rec_QA_run_02_block_000_trial_000.wav,09,00,English,A2,True,False,True,False,False,True,True,True,True,True,True,True,No,2,No,No,No,No,2020_Jul_29_1738,nibs_stage_1,3.2.3,59.97106041281806,
2,0,2,0,,,,,0,0,0,0,1,0,1,0,,,,,,,,,,,,,,,,,,,,,,,,,,,,,,,,,,,,,,,,,,,,,,,,,Listen to the question and speak out your answer!,908.2429940700531,None,908.2261200428009,910.2265739440918,Die Mutter rührt in ihren Töpfen und Pfannen.,rührt,909.6264263629913,912.2765169143677,912.6764835357666,913.6764750480652,924.8271373748779,None,926.2272040843964,927.2272601127625,./data/Subject_09/Session_00/Exp_data/2020_Jul_29_1738/rec_QA_run_02_block_000_trial_001.wav,09,00,English,A2,True,False,True,False,False,True,True,True,True,True,True,True,No,2,No,No,No,No,2020_Jul_29_1738,nibs_stage_1,3.2.3,59.97106041281806,
2,0,2,0,,,,,0,0,0,0,2,0,2,0,,,,,,,,,,,,,,,,,,,,,,,,,,,,,,,,,,,,,,,,,,,,,,,,,Listen to the question and speak out your answer!,929.2607409954071,None,929.243653678894,931.2442519664764,In diesem Krankenhaus werden viele Patienten behandelt.,behandelt,930.6274193763733,None,934.4942335128784,None,945.8282984733581,None,947.2452900409698,948.2451131343842,./data/Subject_09/Session_00/Exp_data/2020_Jul_29_1738/rec_QA_run_02_block_000_trial_002.wav,09,00,English,A2,True,False,True,False,False,True,True,True,True,True,True,True,No,2,No,No,No,No,2020_Jul_29_1738,nibs_stage_1,3.2.3,59.97106041281806,
2,0,2,0,,,,,0,0,0,0,3,0,3,0,,,,,,,,,,,,,,,,,,,,,,,,,,,,,,,,,,,,,,,,,,,,,,,,,Listen to the question and speak out your answer!,950.2955439090729,None,950.2781711101532,952.2786900997162,Simon hat riesige Bilder gemalt.,gemalt,951.6785174846649,953.8787000179291,954.2787834644317,None,966.879460477829,967.8960480690002,968.2960901260376,None,./data/Subject_09/Session_00/Exp_data/2020_Jul_29_1738/rec_QA_run_02_block_000_trial_003.wav,09,00,English,A2,True,False,True,False,False,True,True,True,True,True,True,True,No,2,No,No,No,No,2020_Jul_29_1738,nibs_stage_1,3.2.3,59.97106041281806,
2,0,2,0,,,,,0,0,0,0,4,0,4,0,,,,,,,,,,,,,,,,,,,,,,,,,,,,,,,,,,,,,,,,,,,,,,,,,Listen to the question and speak out your answer!,971.3462769985199,None,971.3292220115661,973.3463599681854,Mit meinem Wagen kann ich nach Tibet reisen.,reisen,972.7296673297882,None,975.729829454422,None,987.9304884910583,988.9471809864044,989.3473210334778,None,./data/Subject_09/Session_00/Exp_data/2020_Jul_29_1738/rec_QA_run_02_block_000_trial_004.wav,09,00,English,A2,True,False,True,False,False,True,True,True,True,True,True,True,No,2,No,No,No,No,2020_Jul_29_1738,nibs_stage_1,3.2.3,59.97106041281806,
2,0,2,0,,,,,0,0,0,0,5,0,5,0,,,,,,,,,,,,,,,,,,,,,,,,,,,,,,,,,,,,,,,,,,,,,,,,,Listen to the question and speak out your answer!,992.3982081413269,None,992.3803060531616,994.3976271152496,"Die Deutschen sind immer organisiert und werden alles planen, bevor sie irgendetwas tun.",planen,993.7807623386383,998.8643710613251,999.2477573394775,None,1008.9815644264221,None,1010.3983590602875,None,./data/Subject_09/Session_00/Exp_data/2020_Jul_29_1738/rec_QA_run_02_block_000_trial_005.wav,09,00,English,A2,True,False,True,False,False,True,True,True,True,True,True,True,No,2,No,No,No,No,2020_Jul_29_1738,nibs_stage_1,3.2.3,59.97106041281806,
2,0,2,0,,,,,0,0,0,0,6,0,6,0,,,,,,,,,,,,,,,,,,,,,,,,,,,,,,,,,,,,,,,,,,,,,,,,,Listen to the question and speak out your answer!,1013.4494860172272,None,1013.4314690113067,1015.4485890865326,Ich konnte meine Brille nicht finden.,finden,1014.8318504333496,1016.8822059631348,1017.2319983482361,None,1030.032667541504,None,1031.4494259357452,None,./data/Subject_09/Session_00/Exp_data/2020_Jul_29_1738/rec_QA_run_02_block_000_trial_006.wav,09,00,English,A2,True,False,True,False,False,True,True,True,True,True,True,True,No,2,No,No,No,No,2020_Jul_29_1738,nibs_stage_1,3.2.3,59.97106041281806,
2,0,2,0,,,,,0,0,0,0,7,0,7,0,,,,,,,,,,,,,,,,,,,,,,,,,,,,,,,,,,,,,,,,,,,,,,,,,Listen to the question and speak out your answer!,1034.4671080112457,None,1034.449194955826,1036.4663541316986,"Ich komme, soweit es meine Zeit erlaubt.",erlaubt,1035.8496614933015,1038.4331901073456,1038.8164714813233,None,1051.0504833698274,None,1052.4672079086304,None,./data/Subject_09/Session_00/Exp_data/2020_Jul_29_1738/rec_QA_run_02_block_000_trial_007.wav,09,00,English,A2,True,False,True,False,False,True,True,True,True,True,True,True,No,2,No,No,No,No,2020_Jul_29_1738,nibs_stage_1,3.2.3,59.97106041281806,
2,0,2,0,,,,,0,0,0,0,8,0,8,0,,,,,,,,,,,,,,,,,,,,,,,,,,,,,,,,,,,,,,,,,,,,,,,,,Listen to the question and speak out your answer!,1055.5012950897217,None,1055.48362865448,1057.5007910728455,Die Zugvögel fliegen von Norden nach Süden,fliegen,1056.8843103885652,1059.767578125,1060.1511434555055,1061.1676440238953,1072.0849274635316,None,1073.5017549991608,None,./data/Subject_09/Session_00/Exp_data/2020_Jul_29_1738/rec_QA_run_02_block_000_trial_008.wav,09,00,English,A2,True,False,True,False,False,True,True,True,True,True,True,True,No,2,No,No,No,No,2020_Jul_29_1738,nibs_stage_1,3.2.3,59.97106041281806,
2,0,2,0,,,,,0,0,0,0,9,0,9,0,,,,,,,,,,,,,,,,,,,,,,,,,,,,,,,,,,,,,,,,,,,,,,,,,Listen to the question and speak out your answer!,1076.5521109104156,None,1076.5347509860994,1078.5519139766693,"Sein Kommentar ist immer so vage, dass niemand weiß, was er meint.",meint,1077.9351984500886,1082.1521010398865,1082.5354525089265,None,1093.1360043525697,None,1094.5527520179749,None,./data/Subject_09/Session_00/Exp_data/2020_Jul_29_1738/rec_QA_run_02_block_000_trial_009.wav,09,00,English,A2,True,False,True,False,False,True,True,True,True,True,True,True,No,2,No,No,No,No,2020_Jul_29_1738,nibs_stage_1,3.2.3,59.97106041281806,
2,0,2,0,,,,,0,0,0,0,10,0,10,0,,,,,,,,,,,,,,,,,,,,,,,,,,,,,,,,,,,,,,,,,,,,,,,,,Listen to the question and speak out your answer!,1097.5696320533752,None,1097.535860681534,1099.5696790218353,"Ich heiße Tibor, wie ist dein Name?",heiße,1098.9529794692994,1101.3697719573975,1101.753143453598,None,1114.1538204193116,None,1115.5706000328064,None,./data/Subject_09/Session_00/Exp_data/2020_Jul_29_1738/rec_QA_run_02_block_000_trial_010.wav,09,00,English,A2,True,False,True,False,False,True,True,True,True,True,True,True,No,2,No,No,No,No,2020_Jul_29_1738,nibs_stage_1,3.2.3,59.97106041281806,
2,0,2,0,,,,,0,0,0,0,11,0,11,0,,,,,,,,,,,,,,,,,,,,,,,,,,,,,,,,,,,,,,,,,,,,,,,,,Listen to the question and speak out your answer!,1118.604334115982,None,1118.586967420578,1120.6041231155396,Die Polizei hat die Einzelheiten des gestohlenen Autos auf einem Zettel notiert.,notiert,1119.9873935222627,1124.9042599201202,1125.2876934051515,None,1135.1882263660432,None,1136.6049909591675,None,./data/Subject_09/Session_00/Exp_data/2020_Jul_29_1738/rec_QA_run_02_block_000_trial_011.wav,09,00,English,A2,True,False,True,False,False,True,True,True,True,True,True,True,No,2,No,No,No,No,2020_Jul_29_1738,nibs_stage_1,3.2.3,59.97106041281806,
2,0,2,0,,,,,0,0,0,0,12,0,12,0,,,,,,,,,,,,,,,,,,,,,,,,,,,,,,,,,,,,,,,,,,,,,,,,,Listen to the question and speak out your answer!,1139.639011144638,None,1139.6047299385073,1141.6385650634766,Die Ausbildung besteht aus mehreren Modulen.,besteht,1141.0219475269319,1143.7720029354095,1144.1553634643556,1145.1720831394196,1156.1893204689027,None,1157.6060979366302,None,./data/Subject_09/Session_00/Exp_data/2020_Jul_29_1738/rec_QA_run_02_block_000_trial_012.wav,09,00,English,A2,True,False,True,False,False,True,True,True,True,True,True,True,No,2,No,No,No,No,2020_Jul_29_1738,nibs_stage_1,3.2.3,59.97106041281806,
2,0,2,0,,,,,0,0,0,0,13,0,13,0,,,,,,,,,,,,,,,,,,,,,,,,,,,,,,,,,,,,,,,,,,,,,,,,,Listen to the question and speak out your answer!,1160.6729469299316,None,1160.6392910957338,1162.673150062561,Die Stadt liegt nahe am Meer.,liegt,1162.0229765415193,None,1164.223094367981,None,1177.2240344524384,None,1178.640517950058,None,./data/Subject_09/Session_00/Exp_data/2020_Jul_29_1738/rec_QA_run_02_block_000_trial_013.wav,09,00,English,A2,True,False,True,False,False,True,True,True,True,True,True,True,No,2,No,No,No,No,2020_Jul_29_1738,nibs_stage_1,3.2.3,59.97106041281806,
2,0,2,0,,,,,0,0,0,0,14,0,14,0,,,,,,,,,,,,,,,,,,,,,,,,,,,,,,,,,,,,,,,,,,,,,,,,,Listen to the question and speak out your answer!,1181.707454919815,None,1181.6736240863802,1183.7074661254883,Beim Bäcker gibt es täglich frisches Brot.,gibt,1183.0576893329621,None,1186.0575484275819,None,1198.258244419098,None,1199.6749579906464,None,./data/Subject_09/Session_00/Exp_data/2020_Jul_29_1738/rec_QA_run_02_block_000_trial_014.wav,09,00,English,A2,True,False,True,False,False,True,True,True,True,True,True,True,No,2,No,No,No,No,2020_Jul_29_1738,nibs_stage_1,3.2.3,59.97106041281806,
2,0,2,0,,,,,0,0,0,0,15,0,15,0,,,,,,,,,,,,,,,,,,,,,,,,,,,,,,,,,,,,,,,,,,,,,,,,,Listen to the question and speak out your answer!,1202.741900920868,None,1202.7080739021303,1204.7418959140778,"In Neuseeland und Irland ist es so grün, weil es besonders oft regnet.",regnet,1204.1251944541932,None,1208.8587934017182,1209.8754949569702,1219.2927903175355,None,1220.7099900245667,None,./data/Subject_09/Session_00/Exp_data/2020_Jul_29_1738/rec_QA_run_02_block_000_trial_015.wav,09,00,English,A2,True,False,True,False,False,True,True,True,True,True,True,True,No,2,No,No,No,No,2020_Jul_29_1738,nibs_stage_1,3.2.3,59.97106041281806,
2,0,2,0,,,,,0,0,0,0,16,0,16,0,,,,,,,,,,,,,,,,,,,,,,,,,,,,,,,,,,,,,,,,,,,,,,,,,Listen to the question and speak out your answer!,1223.7768819332123,None,1223.7425470829012,1225.7763290405273,Menschen und Firmen können ein Konto bei der Bank eröffnen.,eröffnen,1225.1596204280854,1228.5098369121552,1228.8930903911591,1229.9098899364471,1240.3603605270387,None,1241.7771921157837,None,./data/Subject_09/Session_00/Exp_data/2020_Jul_29_1738/rec_QA_run_02_block_000_trial_016.wav,09,00,English,A2,True,False,True,False,False,True,True,True,True,True,True,True,No,2,No,No,No,No,2020_Jul_29_1738,nibs_stage_1,3.2.3,59.97106041281806,
2,0,2,0,,,,,0,0,0,0,17,0,17,0,,,,,,,,,,,,,,,,,,,,,,,,,,,,,,,,,,,,,,,,,,,,,,,,,Listen to the question and speak out your answer!,1244.8115711212158,None,1244.7936114788056,1246.8107769489288,"Ein rotes Signal bedeutet, dass ich warten muss.",bedeutet,1246.1940764427186,None,1249.627605342865,None,1261.3948885440827,None,1262.8115589618683,None,./data/Subject_09/Session_00/Exp_data/2020_Jul_29_1738/rec_QA_run_02_block_000_trial_017.wav,09,00,English,A2,True,False,True,False,False,True,True,True,True,True,True,True,No,2,No,No,No,No,2020_Jul_29_1738,nibs_stage_1,3.2.3,59.97106041281806,
2,0,2,0,,,,,0,0,0,0,18,0,18,0,,,,,,,,,,,,,,,,,,,,,,,,,,,,,,,,,,,,,,,,,,,,,,,,,Listen to the question and speak out your answer!,1265.8293619155884,None,1265.8113129615786,1267.828544139862,Ich male sehr gerne Ölbilder.,male,1267.2118555545808,None,1269.6786223888398,None,1282.4126674175263,1283.4293620586395,1283.8293850421906,None,./data/Subject_09/Session_00/Exp_data/2020_Jul_29_1738/rec_QA_run_02_block_000_trial_018.wav,09,00,English,A2,True,False,True,False,False,True,True,True,True,True,True,True,No,2,No,No,No,No,2020_Jul_29_1738,nibs_stage_1,3.2.3,59.97106041281806,
2,0,2,0,,,,,0,0,0,0,19,0,19,0,,,,,,,,,,,,,,,,,,,,,,,,,,,,,,,,,,,,,,,,,,,,,,,,,Listen to the question and speak out your answer!,1286.8629820346832,None,1286.829176950455,1288.8632850646973,"Es freut mich sehr, Sie kennenzulernen.",freut,1288.246323490143,None,1291.113119506836,1292.1299080848694,1303.4470974445344,None,1304.863830089569,None,./data/Subject_09/Session_00/Exp_data/2020_Jul_29_1738/rec_QA_run_02_block_000_trial_019.wav,09,00,English,A2,True,False,True,False,False,True,True,True,True,True,True,True,No,2,No,No,No,No,2020_Jul_29_1738,nibs_stage_1,3.2.3,59.97106041281806,
2,0,2,0,,,,,0,0,0,0,20,0,20,0,,,,,,,,,,,,,,,,,,,,,,,,,,,,,,,,,,,,,,,,,,,,,,,,,Listen to the question and speak out your answer!,1307.9988911151886,None,1307.9802647590639,1309.9974539279938,Der Autor beschrieb Sam als eine sehr nette Person.,beschrieb,1309.3807405471803,1312.597608089447,1312.9809264183045,None,1324.5815314292909,1325.5982129573822,1325.9982950687408,None,./data/Subject_09/Session_00/Exp_data/2020_Jul_29_1738/rec_QA_run_02_block_000_trial_020.wav,09,00,English,A2,True,False,True,False,False,True,True,True,True,True,True,True,No,2,No,No,No,No,2020_Jul_29_1738,nibs_stage_1,3.2.3,59.97106041281806,
2,0,2,0,,,,,0,0,0,0,21,0,21,0,,,,,,,,,,,,,,,,,,,,,,,,,,,,,,,,,,,,,,,,,,,,,,,,,Listen to the question and speak out your answer!,1329.0657880306244,None,1329.0314059734346,1331.0652120113373,Die Wissenschaftler aus der Physik heißen Physiker.,heißen,1330.4152034759522,None,1334.0487164497376,None,1345.616017484665,None,1347.0328810214996,None,./data/Subject_09/Session_00/Exp_data/2020_Jul_29_1738/rec_QA_run_02_block_000_trial_021.wav,09,00,English,A2,True,False,True,False,False,True,True,True,True,True,True,True,No,2,No,No,No,No,2020_Jul_29_1738,nibs_stage_1,3.2.3,59.97106041281806,
2,0,2,0,,,,,0,0,0,0,22,0,22,0,,,,,,,,,,,,,,,,,,,,,,,,,,,,,,,,,,,,,,,,,,,,,,,,,Listen to the question and speak out your answer!,1350.1001999378204,None,1350.0658469676973,1352.0999619960785,Ich nehme zwei Bücher aus dem Regal.,nehme,1351.48296251297,None,1354.2497743606568,None,1366.68377532959,None,1368.100506067276,None,./data/Subject_09/Session_00/Exp_data/2020_Jul_29_1738/rec_QA_run_02_block_000_trial_022.wav,09,00,English,A2,True,False,True,False,False,True,True,True,True,True,True,True,No,2,No,No,No,No,2020_Jul_29_1738,nibs_stage_1,3.2.3,59.97106041281806,
2,0,2,0,,,,,0,0,0,0,23,0,23,0,,,,,,,,,,,,,,,,,,,,,,,,,,,,,,,,,,,,,,,,,,,,,,,,,Listen to the question and speak out your answer!,1371.134243965149,None,1371.1169583320618,1373.1341099739075,Die schwarze Wolken werden Regen bringen.,bringen,1372.5174154281617,1374.9010879993439,1375.2842103481294,None,1387.7182425498963,None,1389.1349880695343,None,./data/Subject_09/Session_00/Exp_data/2020_Jul_29_1738/rec_QA_run_02_block_000_trial_023.wav,09,00,English,A2,True,False,True,False,False,True,True,True,True,True,True,True,No,2,No,No,No,No,2020_Jul_29_1738,nibs_stage_1,3.2.3,59.97106041281806,
2,0,2,0,,,,,0,0,0,0,24,0,24,0,,,,,,,,,,,,,,,,,,,,,,,,,,,,,,,,,,,,,,,,,,,,,,,,,Listen to the question and speak out your answer!,1392.2018749713898,None,1392.1680620193483,1394.2018871307373,An seinem Mantel fehlt ein Knopf.,fehlt,1393.5518495082856,None,1396.085317516327,None,1408.7526694774629,None,1410.169382095337,None,./data/Subject_09/Session_00/Exp_data/2020_Jul_29_1738/rec_QA_run_02_block_000_trial_024.wav,09,00,English,A2,True,False,True,False,False,True,True,True,True,True,True,True,No,2,No,No,No,No,2020_Jul_29_1738,nibs_stage_1,3.2.3,59.97106041281806,
2,0,2,0,,,,,0,0,0,0,,,,,,,,,,,,,,,,,,,,,,,,,,,,,,,,,,,,,,,,,,1414.2196159362793,None,,,,,,,,,,,,,,,,,,,,,,,,,,09,00,English,A2,True,False,True,False,False,True,True,True,True,True,True,True,No,2,No,No,No,No,2020_Jul_29_1738,nibs_stage_1,3.2.3,59.97106041281806,
2,0,2,0,,,,,1,0,1,0,0,0,0,0,,,,,,,,,,,,,,,,,,,,,,,,,,,,,,,,,,,,,,,,,,,,,,,,,Listen to the question and speak out your answer!,1428.3220899105072,None,1428.3031164169313,1430.320739030838,"Hier gibt es viele Tiere, die auf verschiedenen Kontinenten leben.",leben,1429.7037593364716,1433.7539749145508,1434.1373244762422,None,1444.9045783519746,None,1446.3213109970093,None,./data/Subject_09/Session_00/Exp_data/2020_Jul_29_1738/rec_QA_run_02_block_001_trial_000.wav,09,00,English,A2,True,False,True,False,False,True,True,True,True,True,True,True,No,2,No,No,No,No,2020_Jul_29_1738,nibs_stage_1,3.2.3,59.97106041281806,
2,0,2,0,,,,,1,0,1,0,1,0,1,0,,,,,,,,,,,,,,,,,,,,,,,,,,,,,,,,,,,,,,,,,,,,,,,,,Listen to the question and speak out your answer!,1449.389601945877,None,1449.3710624694825,1451.3882360458374,Lisa kann schon mit großen Zahlen rechnen.,rechnen,1450.7715434074403,None,1453.8050183296205,None,1465.9723514556886,1466.9890489578247,1467.3890719413757,None,./data/Subject_09/Session_00/Exp_data/2020_Jul_29_1738/rec_QA_run_02_block_001_trial_001.wav,09,00,English,A2,True,False,True,False,False,True,True,True,True,True,True,True,No,2,No,No,No,No,2020_Jul_29_1738,nibs_stage_1,3.2.3,59.97106041281806,
2,0,2,0,,,,,1,0,1,0,2,0,2,0,,,,,,,,,,,,,,,,,,,,,,,,,,,,,,,,,,,,,,,,,,,,,,,,,Listen to the question and speak out your answer!,1470.4398441314697,None,1470.4221818923952,1472.4395010471344,"Wenn es wärmer wird, werde ich die Fenster öffnen.",öffnen,1471.822637462616,None,1474.9895993709565,None,1487.0234693527223,None,1488.440171957016,None,./data/Subject_09/Session_00/Exp_data/2020_Jul_29_1738/rec_QA_run_02_block_001_trial_002.wav,09,00,English,A2,True,False,True,False,False,True,True,True,True,True,True,True,No,2,No,No,No,No,2020_Jul_29_1738,nibs_stage_1,3.2.3,59.97106041281806,
2,0,2,0,,,,,1,0,1,0,3,0,3,0,,,,,,,,,,,,,,,,,,,,,,,,,,,,,,,,,,,,,,,,,,,,,,,,,Listen to the question and speak out your answer!,1491.5075781345367,None,1491.473324108124,1493.5071110725403,Er pflegte jeden Abend auf Pferden zu reiten und durch die Wälder zu gehen.,reiten,1492.8570825099946,1497.2739899158478,1497.6906885147096,1498.7075099945068,1508.0578793525697,None,1509.474622964859,None,./data/Subject_09/Session_00/Exp_data/2020_Jul_29_1738/rec_QA_run_02_block_001_trial_003.wav,09,00,English,A2,True,False,True,False,False,True,True,True,True,True,True,True,No,2,No,No,No,No,2020_Jul_29_1738,nibs_stage_1,3.2.3,59.97106041281806,
2,0,2,0,,,,,1,0,1,0,4,0,4,0,,,,,,,,,,,,,,,,,,,,,,,,,,,,,,,,,,,,,,,,,,,,,,,,,Listen to the question and speak out your answer!,1512.5416250228882,None,1512.5077460289003,1514.5414791107178,Tomas fischt im Fluss und wird Fisch zum Abendessen essen.,fischt,1513.9248713493348,None,1517.9584285259248,None,1529.108904504776,None,1530.5256900787354,None,./data/Subject_09/Session_00/Exp_data/2020_Jul_29_1738/rec_QA_run_02_block_001_trial_004.wav,09,00,English,A2,True,False,True,False,False,True,True,True,True,True,True,True,No,2,No,No,No,No,2020_Jul_29_1738,nibs_stage_1,3.2.3,59.97106041281806,
2,0,2,0,,,,,1,0,1,0,5,0,5,0,,,,,,,,,,,,,,,,,,,,,,,,,,,,,,,,,,,,,,,,,,,,,,,,,Listen to the question and speak out your answer!,1533.593327999115,None,1533.558912086487,1535.5927519798279,Für dieses Produkt wird keine technische Unterstützung mehr angeboten.,angeboten,1534.9429635047914,None,1539.4765063762666,None,1550.1434284687043,None,1551.5601749420166,None,./data/Subject_09/Session_00/Exp_data/2020_Jul_29_1738/rec_QA_run_02_block_001_trial_005.wav,09,00,English,A2,True,False,True,False,False,True,True,True,True,True,True,True,No,2,No,No,No,No,2020_Jul_29_1738,nibs_stage_1,3.2.3,59.97106041281806,
2,0,2,0,,,,,1,0,1,0,6,0,6,0,,,,,,,,,,,,,,,,,,,,,,,,,,,,,,,,,,,,,,,,,,,,,,,,,Listen to the question and speak out your answer!,1554.6105089187622,None,1554.5933011054994,1556.6106250286102,"Mein Bruder hat uns zum Abendessen eingeladen, ich habe bereits zugesagt.",eingeladen,1555.9937805175782,None,1560.96067442894,None,1571.19456448555,None,1572.611479997635,None,./data/Subject_09/Session_00/Exp_data/2020_Jul_29_1738/rec_QA_run_02_block_001_trial_006.wav,09,00,English,A2,True,False,True,False,False,True,True,True,True,True,True,True,No,2,No,No,No,No,2020_Jul_29_1738,nibs_stage_1,3.2.3,59.97106041281806,
2,0,2,0,,,,,1,0,1,0,7,0,7,0,,,,,,,,,,,,,,,,,,,,,,,,,,,,,,,,,,,,,,,,,,,,,,,,,Listen to the question and speak out your answer!,1575.6787869930267,None,1575.6443989753725,1577.678232908249,"Es ist nicht zulässig, bei der Prüfung Hilfsmittel zu benutzen.",benutzen,1577.061539554596,1580.7117240428925,1581.0950793266297,None,1592.2624713420869,None,1593.6791949272156,None,./data/Subject_09/Session_00/Exp_data/2020_Jul_29_1738/rec_QA_run_02_block_001_trial_007.wav,09,00,English,A2,True,False,True,False,False,True,True,True,True,True,True,True,No,2,No,No,No,No,2020_Jul_29_1738,nibs_stage_1,3.2.3,59.97106041281806,
2,0,2,0,,,,,1,0,1,0,8,0,8,0,,,,,,,,,,,,,,,,,,,,,,,,,,,,,,,,,,,,,,,,,,,,,,,,,Listen to the question and speak out your answer!,1596.7126491069794,None,1596.6788609504702,1598.7126879692078,Ist der Tisch schon gedeckt?,gedeckt,1598.062645339966,1599.6127109527588,1600.02939453125,None,1613.263436460495,None,1614.6801810264587,None,./data/Subject_09/Session_00/Exp_data/2020_Jul_29_1738/rec_QA_run_02_block_001_trial_008.wav,09,00,English,A2,True,False,True,False,False,True,True,True,True,True,True,True,No,2,No,No,No,No,2020_Jul_29_1738,nibs_stage_1,3.2.3,59.97106041281806,
2,0,2,0,,,,,1,0,1,0,9,0,9,0,,,,,,,,,,,,,,,,,,,,,,,,,,,,,,,,,,,,,,,,,,,,,,,,,Listen to the question and speak out your answer!,1617.7470951080322,None,1617.713278102875,1619.7471170425415,Ein Fußball Team besteht aus zehn Spielern und einem Tormann.,besteht,1619.1303984165193,1622.980612039566,1623.3639613628388,None,1634.3312233924867,1635.3479330539703,1635.7479801177979,None,./data/Subject_09/Session_00/Exp_data/2020_Jul_29_1738/rec_QA_run_02_block_001_trial_009.wav,09,00,English,A2,True,False,True,False,False,True,True,True,True,True,True,True,No,2,No,No,No,No,2020_Jul_29_1738,nibs_stage_1,3.2.3,59.97106041281806,
2,0,2,0,,,,,1,0,1,0,10,0,10,0,,,,,,,,,,,,,,,,,,,,,,,,,,,,,,,,,,,,,,,,,,,,,,,,,Listen to the question and speak out your answer!,1638.7827191352844,None,1638.7644364356995,1640.781641960144,"Ich sollte aufstehen, wenn morgens der Wecker geläutet.",geläutet,1640.1648553848268,1643.4485919475555,1643.7983855247498,None,1655.365651512146,None,1656.7824001312256,None,./data/Subject_09/Session_00/Exp_data/2020_Jul_29_1738/rec_QA_run_02_block_001_trial_010.wav,09,00,English,A2,True,False,True,False,False,True,True,True,True,True,True,True,No,2,No,No,No,No,2020_Jul_29_1738,nibs_stage_1,3.2.3,59.97106041281806,
2,0,2,0,,,,,1,0,1,0,11,0,11,0,,,,,,,,,,,,,,,,,,,,,,,,,,,,,,,,,,,,,,,,,,,,,,,,,Listen to the question and speak out your answer!,1659.8665010929108,None,1659.8322214603425,1661.8659970760345,"Ich kann es kaum abwarten, das Video meiner Hochzeit zu sehen.",abwarten,1661.2162264823914,1664.8994901180267,1665.316175365448,None,1676.4168554782868,None,1677.8334879875183,None,./data/Subject_09/Session_00/Exp_data/2020_Jul_29_1738/rec_QA_run_02_block_001_trial_011.wav,09,00,English,A2,True,False,True,False,False,True,True,True,True,True,True,True,No,2,No,No,No,No,2020_Jul_29_1738,nibs_stage_1,3.2.3,59.97106041281806,
2,0,2,0,,,,,1,0,1,0,12,0,12,0,,,,,,,,,,,,,,,,,,,,,,,,,,,,,,,,,,,,,,,,,,,,,,,,,Listen to the question and speak out your answer!,1680.90101313591,None,1680.8666320323946,1682.9005761146545,"Ich habe mich bei einem Kurs angemeldet, um Deutsch zu lernen.",angemeldet,1682.2838794231416,1685.8005919456482,1686.1840445041657,None,1697.4845324993134,None,1698.901293039322,None,./data/Subject_09/Session_00/Exp_data/2020_Jul_29_1738/rec_QA_run_02_block_001_trial_012.wav,09,00,English,A2,True,False,True,False,False,True,True,True,True,True,True,True,No,2,No,No,No,No,2020_Jul_29_1738,nibs_stage_1,3.2.3,59.97106041281806,
2,0,2,0,,,,,1,0,1,0,13,0,13,0,,,,,,,,,,,,,,,,,,,,,,,,,,,,,,,,,,,,,,,,,,,,,,,,,Listen to the question and speak out your answer!,1701.935455083847,None,1701.9010808944704,1703.934909105301,Marie mag lieber Sport.,mag,1703.2848323822022,None,1705.4516214370728,None,1718.4856804847718,None,1719.902498960495,None,./data/Subject_09/Session_00/Exp_data/2020_Jul_29_1738/rec_QA_run_02_block_001_trial_013.wav,09,00,English,A2,True,False,True,False,False,True,True,True,True,True,True,True,No,2,No,No,No,No,2020_Jul_29_1738,nibs_stage_1,3.2.3,59.97106041281806,
2,0,2,0,,,,,1,0,1,0,14,0,14,0,,,,,,,,,,,,,,,,,,,,,,,,,,,,,,,,,,,,,,,,,,,,,,,,,Listen to the question and speak out your answer!,1722.9540660381317,None,1722.9355159282686,1724.9526629447937,Bitte bilden Sie einfache Sätze.,bilden,1724.335959339142,None,1726.836259508133,None,1739.5367523670197,None,1740.9534890651703,None,./data/Subject_09/Session_00/Exp_data/2020_Jul_29_1738/rec_QA_run_02_block_001_trial_014.wav,09,00,English,A2,True,False,True,False,False,True,True,True,True,True,True,True,No,2,No,No,No,No,2020_Jul_29_1738,nibs_stage_1,3.2.3,59.97106041281806,
2,0,2,0,,,,,1,0,1,0,15,0,15,0,,,,,,,,,,,,,,,,,,,,,,,,,,,,,,,,,,,,,,,,,,,,,,,,,Listen to the question and speak out your answer!,1744.022015094757,None,1744.003323507309,1746.0208230018616,Moni hat eine Fahrkarte für den Zug nach Salzburg gekauft.,gekauft,1745.4037565231324,1749.154135942459,1749.5372833251954,None,1760.6045524120332,1761.6212599277496,1762.0212700366974,None,./data/Subject_09/Session_00/Exp_data/2020_Jul_29_1738/rec_QA_run_02_block_001_trial_015.wav,09,00,English,A2,True,False,True,False,False,True,True,True,True,True,True,True,No,2,No,No,No,No,2020_Jul_29_1738,nibs_stage_1,3.2.3,59.97106041281806,
2,0,2,0,,,,,1,0,1,0,16,0,16,0,,,,,,,,,,,,,,,,,,,,,,,,,,,,,,,,,,,,,,,,,,,,,,,,,Listen to the question and speak out your answer!,1765.0721249580383,None,1765.054287004471,1767.071545124054,Bei dem Gewitter letzte Woche hat der Blitz in ein Boot eingeschlagen.,eingeschlagen,1766.4548675060273,1770.2383999824524,1770.6217314243318,None,1781.6556574344636,None,1783.0725860595703,None,./data/Subject_09/Session_00/Exp_data/2020_Jul_29_1738/rec_QA_run_02_block_001_trial_016.wav,09,00,English,A2,True,False,True,False,False,True,True,True,True,True,True,True,No,2,No,No,No,No,2020_Jul_29_1738,nibs_stage_1,3.2.3,59.97106041281806,
2,0,2,0,,,,,1,0,1,0,17,0,17,0,,,,,,,,,,,,,,,,,,,,,,,,,,,,,,,,,,,,,,,,,,,,,,,,,Listen to the question and speak out your answer!,1786.1396090984344,None,1786.1055069446566,1788.13933801651,"Mein Bett ist gemütlich und warm, ich möchte nicht aufstehen.",aufstehen,1787.5226363182069,1791.0397539138794,1791.4228633880616,None,1802.7234083652497,None,1804.1401720046997,None,./data/Subject_09/Session_00/Exp_data/2020_Jul_29_1738/rec_QA_run_02_block_001_trial_017.wav,09,00,English,A2,True,False,True,False,False,True,True,True,True,True,True,True,No,2,No,No,No,No,2020_Jul_29_1738,nibs_stage_1,3.2.3,59.97106041281806,
2,0,2,0,,,,,1,0,1,0,18,0,18,0,,,,,,,,,,,,,,,,,,,,,,,,,,,,,,,,,,,,,,,,,,,,,,,,,Listen to the question and speak out your answer!,1807.1585519313812,None,1807.1399369716646,1809.1570811271667,Wie lange muss Pat heute im Firma noch arbeiten?,arbeiten,1808.5403934955598,None,1811.707217359543,1812.723932981491,1823.741148376465,1824.7579281330109,1825.1579539775848,None,./data/Subject_09/Session_00/Exp_data/2020_Jul_29_1738/rec_QA_run_02_block_001_trial_018.wav,09,00,English,A2,True,False,True,False,False,True,True,True,True,True,True,True,No,2,No,No,No,No,2020_Jul_29_1738,nibs_stage_1,3.2.3,59.97106041281806,
2,0,2,0,,,,,1,0,1,0,19,0,19,0,,,,,,,,,,,,,,,,,,,,,,,,,,,,,,,,,,,,,,,,,,,,,,,,,Listen to the question and speak out your answer!,1828.2254650592804,None,1828.1910739421846,1830.2248799800873,"Ich möchte einen weiteren Test durchführen, um die Ergebnisse zu prüfen.",prüfen,1829.6082903385163,None,1834.341773414612,1835.3585209846497,1844.8091093540193,1845.8256261348724,1846.2258009910583,None,./data/Subject_09/Session_00/Exp_data/2020_Jul_29_1738/rec_QA_run_02_block_001_trial_019.wav,09,00,English,A2,True,False,True,False,False,True,True,True,True,True,True,True,No,2,No,No,No,No,2020_Jul_29_1738,nibs_stage_1,3.2.3,59.97106041281806,
2,0,2,0,,,,,1,0,1,0,20,0,20,0,,,,,,,,,,,,,,,,,,,,,,,,,,,,,,,,,,,,,,,,,,,,,,,,,Listen to the question and speak out your answer!,1849.2594029903412,None,1849.242165517807,1851.2593441009521,Während einer Trocken-Zeit regnet es sehr selten.,regnet,1850.642654323578,None,1853.9429303646089,None,1865.8434683322907,None,1867.2602019309998,None,./data/Subject_09/Session_00/Exp_data/2020_Jul_29_1738/rec_QA_run_02_block_001_trial_020.wav,09,00,English,A2,True,False,True,False,False,True,True,True,True,True,True,True,No,2,No,No,No,No,2020_Jul_29_1738,nibs_stage_1,3.2.3,59.97106041281806,
2,0,2,0,,,,,1,0,1,0,21,0,21,0,,,,,,,,,,,,,,,,,,,,,,,,,,,,,,,,,,,,,,,,,,,,,,,,,Listen to the question and speak out your answer!,1870.29470205307,None,1870.2766544342041,1872.2939450740814,"Bitte reservieren Sie einen Platz, bevor Sie ins Restaurant gehen.",reservieren,1871.6771165370942,1875.7273490428925,1876.1106895446778,None,1886.8779734611512,1887.8947401046753,1888.2949719429016,None,./data/Subject_09/Session_00/Exp_data/2020_Jul_29_1738/rec_QA_run_02_block_001_trial_021.wav,09,00,English,A2,True,False,True,False,False,True,True,True,True,True,True,True,No,2,No,No,No,No,2020_Jul_29_1738,nibs_stage_1,3.2.3,59.97106041281806,
2,0,2,0,,,,,1,0,1,0,22,0,22,0,,,,,,,,,,,,,,,,,,,,,,,,,,,,,,,,,,,,,,,,,,,,,,,,,Listen to the question and speak out your answer!,1891.3124630451202,None,1891.2944820404055,1893.3116590976715,"Wir brauchen Bretter, um ein Regal zu bauen.",bauen,1892.6949273586274,None,1895.895064496994,None,1907.8958975315095,None,1909.3125200271606,None,./data/Subject_09/Session_00/Exp_data/2020_Jul_29_1738/rec_QA_run_02_block_001_trial_022.wav,09,00,English,A2,True,False,True,False,False,True,True,True,True,True,True,True,No,2,No,No,No,No,2020_Jul_29_1738,nibs_stage_1,3.2.3,59.97106041281806,
2,0,2,0,,,,,1,0,1,0,23,0,23,0,,,,,,,,,,,,,,,,,,,,,,,,,,,,,,,,,,,,,,,,,,,,,,,,,Listen to the question and speak out your answer!,1912.3476090431213,None,1912.3292564868927,1914.3460431098938,Die alte Zimmerdecke muss man renovieren.,renovieren,1913.6960925102235,1916.1795499324799,1916.5963415145875,None,1928.8969384670258,None,1930.3136630058289,None,./data/Subject_09/Session_00/Exp_data/2020_Jul_29_1738/rec_QA_run_02_block_001_trial_023.wav,09,00,English,A2,True,False,True,False,False,True,True,True,True,True,True,True,No,2,No,No,No,No,2020_Jul_29_1738,nibs_stage_1,3.2.3,59.97106041281806,
2,0,2,0,,,,,1,0,1,0,24,0,24,0,,,,,,,,,,,,,,,,,,,,,,,,,,,,,,,,,,,,,,,,,,,,,,,,,Listen to the question and speak out your answer!,1933.3820700645447,None,1933.3634323596955,1935.3806009292603,Jede Nacht muss ich den Kindern ein Märchen erzählen.,erzählen,1934.7638954162599,1937.780977010727,1938.164098405838,None,1949.9646815299989,1950.9815020561218,1951.381497144699,None,./data/Subject_09/Session_00/Exp_data/2020_Jul_29_1738/rec_QA_run_02_block_001_trial_024.wav,09,00,English,A2,True,False,True,False,False,True,True,True,True,True,True,True,No,2,No,No,No,No,2020_Jul_29_1738,nibs_stage_1,3.2.3,59.97106041281806,
