run.thisRepN,run.thisTrialN,run.thisN,run.thisIndex,artifact_trial.thisRepN,artifact_trial.thisTrialN,artifact_trial.thisN,artifact_trial.thisIndex,QA_block.thisRepN,QA_block.thisTrialN,QA_block.thisN,QA_block.thisIndex,QA_trial.thisRepN,QA_trial.thisTrialN,QA_trial.thisN,QA_trial.thisIndex,fade_in_text.text,fade_in_text.started,fade_in_text.stopped,Artifact_intro_title.started,Artifact_intro_title.stopped,Artifact_intro_text.text,Artifact_intro_text.started,Artifact_intro_text.stopped,Artifact_intro_audio.started,Artifact_intro_audio.stopped,Artifact_intro_cont.started,Artifact_intro_cont.stopped,Artifact_rec_text.text,Artifact_rec_text.started,Artifact_rec_text.stopped,Artifact_rec_beep_hint.started,Artifact_rec_beep_hint.stopped,Artifact_rec_action.started,Artifact_rec_action.stopped,Artifact_rec_beep_start.started,Artifact_rec_beep_start.stopped,Artifact_rec_recording.started,Artifact_rec_recording.stopped,Artifact_rec_beep_end.started,Artifact_rec_beep_end.stopped,Artifact_rec_break.started,Artifact_rec_break.stopped,RS_intro_title.started,RS_intro_title.stopped,RS_intro_text.text,RS_intro_text.started,RS_intro_text.stopped,RS_intro_audio.started,RS_intro_audio.stopped,RS_rec_text.text,RS_rec_text.started,RS_rec_text.stopped,Pause_cont.started,Pause_cont.stopped,QA_intro_title.started,QA_intro_title.stopped,QA_intro_text.text,QA_intro_text.started,QA_intro_text.stopped,QA_intro_audio.started,QA_intro_audio.stopped,QA_intro_cont.started,QA_intro_cont.stopped,QA_rec_text.text,QA_rec_text.started,QA_rec_text.stopped,QA_rec_beep_hint.started,QA_rec_beep_hint.stopped,QA_rec_question.sen_text,QA_rec_question.cen_text,QA_rec_question.started,QA_rec_question.stopped,QA_rec_beep_start.started,QA_rec_beep_start.stopped,QA_rec_beep_end.started,QA_rec_beep_end.stopped,QA_rec_break.started,QA_rec_break.stopped,filename,fade_out_text.text,fade_out_text.started,fade_out_text.stopped,participant,session,First language,German level,Full_screen,Instruction,Intro,Artifact,Cali_pre,Fade_in_out,Artifact_within,Resting_State,QA,Pause,Cali_post,End,Breakpoint_Cali_pre_trial,Breakpoint_Run,Breakpoint_RS_block,Breakpoint_QA_block,Breakpoint_QA_trial,Breakpoint_Cali_post_trial,date,expName,psychopyVersion,frameRate,
2,0,2,0,0,0,0,0,,,,,,,,,Please remain seated until further instruction via the earphone.,55.297247886657715,None,57.330893993377686,None,"  - Task: Artifacts collection   
  - Please follow audio instruction              
",57.330893993377686,None,57.31371068954468,None,83.69870495796204,None,,85.73187804222107,None,85.715167760849,87.71541690826416,87.11531281471252,None,90.51547694206238,91.51560688018799,91.91562581062317,101.9161479473114,102.31628704071045,None,103.71643304824829,104.71643400192261,,,,,,,,,,,,,,,,,,,,,,,,,,,,,,,,,,,,,,,,,10,01,English,A2,True,False,True,False,False,True,True,True,True,True,True,True,No,2,No,No,No,No,2020_Aug_06_1242,nibs_stage_1,3.2.3,60.0247007926865,
2,0,2,0,1,0,1,0,,,,,,,,,,,,,,,,,,,,,,107.7336208820343,None,107.73287177085876,109.73339891433716,109.11667203903198,None,112.5168399810791,113.51696491241455,113.9169659614563,123.91738891601562,124.31741881370544,None,125.71755290031433,126.71761703491211,,,,,,,,,,,,,,,,,,,,,,,,,,,,,,,,,,,,,,,,,10,01,English,A2,True,False,True,False,False,True,True,True,True,True,True,True,No,2,No,No,No,No,2020_Aug_06_1242,nibs_stage_1,3.2.3,60.0247007926865,
2,0,2,0,2,0,2,0,,,,,,,,,,,,,,,,,,,,,,129.75094389915466,129.75094389915466,129.73401165008545,131.7342460155487,131.13438892364502,None,134.53441882133484,135.53449892997742,135.93451595306396,145.93495082855225,146.334951877594,None,147.73512387275696,148.73522305488586,,,,,,,,,,,,,,,,,,,,,,,,,,,,,,,,,,,,,,,,,10,01,English,A2,True,False,True,False,False,True,True,True,True,True,True,True,No,2,No,No,No,No,2020_Aug_06_1242,nibs_stage_1,3.2.3,60.0247007926865,
2,0,2,0,3,0,3,0,,,,,,,,,,,,,,,,,,,,,,151.7525508403778,None,151.75168371200562,153.7521049976349,153.13539791107178,None,156.5355908870697,157.53572392463684,157.93576192855835,167.93606996536255,168.33612895011902,None,169.7362780570984,170.73631405830383,,,,,,,,,,,,,,,,,,,,,,,,,,,,,,,,,,,,,,,,,10,01,English,A2,True,False,True,False,False,True,True,True,True,True,True,True,No,2,No,No,No,No,2020_Aug_06_1242,nibs_stage_1,3.2.3,60.0247007926865,
2,0,2,0,4,0,4,0,,,,,,,,,,,,,,,,,,,,,,173.76990604400635,173.76990604400635,173.75274276733398,175.75322794914246,175.1532108783722,None,178.55340385437012,None,179.95346188545227,189.95397996902466,190.3539960384369,None,191.7540738582611,192.75411891937256,,,,,,,,,,,,,,,,,,,,,,,,,,,,,,,,,,,,,,,,,10,01,English,A2,True,False,True,False,False,True,True,True,True,True,True,True,No,2,No,No,No,No,2020_Aug_06_1242,nibs_stage_1,3.2.3,60.0247007926865,
2,0,2,0,5,0,5,0,,,,,,,,,,,,,,,,,,,,,,195.7716908454895,None,195.7706367969513,197.77105689048767,197.15454602241516,None,200.55463981628418,None,201.95461702346802,211.95510983467102,212.3550579547882,None,213.75520491600037,214.7553780078888,,,,,,,,,,,,,,,,,,,,,,,,,,,,,,,,,,,,,,,,,10,01,English,A2,True,False,True,False,False,True,True,True,True,True,True,True,No,2,No,No,No,No,2020_Aug_06_1242,nibs_stage_1,3.2.3,60.0247007926865,
2,0,2,0,6,0,6,0,,,,,,,,,,,,,,,,,,,,,,217.788822889328,217.788822889328,217.77176666259766,219.77244997024536,219.17260193824768,None,222.57256388664246,None,223.97253489494324,233.97316002845764,234.37318587303162,235.3732328414917,235.7734558582306,236.77330803871155,,,,,,,,,,,,,,,,,,,,,,,,,,,,,,,,,,,,,,,,,10,01,English,A2,True,False,True,False,False,True,True,True,True,True,True,True,No,2,No,No,No,No,2020_Aug_06_1242,nibs_stage_1,3.2.3,60.0247007926865,
2,0,2,0,7,0,7,0,,,,,,,,,,,,,,,,,,,,,,239.79055404663086,None,239.78983283042908,241.79021382331848,241.17360281944275,244.17379784584045,244.57361698150635,None,245.9737889766693,255.97429299354553,256.37429189682007,257.3743460178375,257.77457094192505,258.77434182167053,,,,,,,,,,,,,,,,,,,,,,,,,,,,,,,,,,,,,,,,,10,01,English,A2,True,False,True,False,False,True,True,True,True,True,True,True,No,2,No,No,No,No,2020_Aug_06_1242,nibs_stage_1,3.2.3,60.0247007926865,
2,0,2,0,8,0,8,0,,,,,,,,,,,,,,,,,,,,,,261.8078188896179,261.8078188896179,261.79093766212463,263.7913558483124,263.19131994247437,266.19148087501526,266.591481924057,None,267.9915609359741,277.99212288856506,278.3920979499817,279.39221692085266,279.79209995269775,280.7922568321228,,,,,,,,,,,,,,,,,,,,,,,,,,,,,,,,,,,,,,,,,10,01,English,A2,True,False,True,False,False,True,True,True,True,True,True,True,No,2,No,No,No,No,2020_Aug_06_1242,nibs_stage_1,3.2.3,60.0247007926865,
2,0,2,0,9,0,9,0,,,,,,,,,,,,,,,,,,,,,,283.8093650341034,None,283.8087728023529,285.80920791625977,285.1923658847809,288.1926679611206,288.5928428173065,None,289.9927248954773,299.9932429790497,300.39326000213623,None,301.79350900650024,302.7933738231659,,,,,,,,,,,,,,,,,,,,,,,,,,,,,,,,,,,,,,,,,10,01,English,A2,True,False,True,False,False,True,True,True,True,True,True,True,No,2,No,No,No,No,2020_Aug_06_1242,nibs_stage_1,3.2.3,60.0247007926865,
2,0,2,0,10,0,10,0,,,,,,,,,,,,,,,,,,,,,,305.8267629146576,305.8267629146576,305.80991983413696,307.81029891967773,307.21025586128235,None,310.61047196388245,None,312.0105299949646,322.011029958725,322.4110789299011,None,323.8111410140991,324.8111848831177,,,,,,,,,,,,,,,,,,,,,,,,,,,,,,,,,,,,,,,,,10,01,English,A2,True,False,True,False,False,True,True,True,True,True,True,True,No,2,No,No,No,No,2020_Aug_06_1242,nibs_stage_1,3.2.3,60.0247007926865,
2,0,2,0,11,0,11,0,,,,,,,,,,,,,,,,,,,,,,327.8282799720764,None,327.82790875434875,329.82811284065247,329.2114269733429,None,332.6116199493408,None,334.01188588142395,344.01200890541077,344.4120309352875,None,345.8121030330658,346.812166929245,,,,,,,,,,,,,,,,,,,,,,,,,,,,,,,,,,,,,,,,,10,01,English,A2,True,False,True,False,False,True,True,True,True,True,True,True,No,2,No,No,No,No,2020_Aug_06_1242,nibs_stage_1,3.2.3,60.0247007926865,
2,0,2,0,12,0,12,0,,,,,,,,,,,,,,,,,,,,,,349.8458230495453,349.8458230495453,349.8286998271942,351.8292598724365,351.2292139530182,354.22938203811646,354.62943601608276,None,356.029492855072,366.03001594543457,366.4300539493561,None,367.83012890815735,368.83019185066223,,,,,,,,,,,,,,,,,,,,,,,,,,,,,,,,,,,,,,,,,10,01,English,A2,True,False,True,False,False,True,True,True,True,True,True,True,No,2,No,No,No,No,2020_Aug_06_1242,nibs_stage_1,3.2.3,60.0247007926865,
2,0,2,0,13,0,13,0,,,,,,,,,,,,,,,,,,,,,,371.84731888771057,None,371.84663581848145,373.8470809459686,373.2303698062897,None,376.630578994751,377.63052701950073,378.03064799308777,388.0311629772186,388.4311349391937,None,389.83124589920044,390.8315398693085,,,,,,,,,,,,,,,,,,,,,,,,,,,,,,,,,,,,,,,,,10,01,English,A2,True,False,True,False,False,True,True,True,True,True,True,True,No,2,No,No,No,No,2020_Aug_06_1242,nibs_stage_1,3.2.3,60.0247007926865,
2,0,2,0,14,0,14,0,,,,,,,,,,,,,,,,,,,,,,393.8646650314331,393.8646650314331,393.84781765937805,395.8480110168457,395.24818992614746,None,398.64824080467224,None,400.04832696914673,410.04899883270264,410.4489288330078,None,411.84921383857727,412.84932684898376,,,,,,,,,,,,,,,,,,,,,,,,,,,,,,,,,,,,,,,,,10,01,English,A2,True,False,True,False,False,True,True,True,True,True,True,True,No,2,No,No,No,No,2020_Aug_06_1242,nibs_stage_1,3.2.3,60.0247007926865,
2,0,2,0,,,,,0,0,0,0,0,0,0,0,,,,,,,,,,,,,,,,,,,,,,,,,,,,623.261234998703,None," - Task: Keep seated and relaxed with either      
             opening or closing eyes                  
 - Beep sound with decreasing pitch: Block finish 
",623.261234998703,None,623.2598757743835,None,"Please keep relaxed and open your eyes.
Note: Blinking is allowed.",646.2778480052948,826.2873890399933,829.6876628398895,None,844.8720428943634,884.8902900218964," - Task: Listen to the question& Speak out answer 
 - Melodious beep sound: Trial start              
 - Silent sound (blank): censored word            
 - Beep sound with increasing pitch: Rec. start   
 - Beep sound with decreasing pitch: Rec. finish  
",844.8720428943634,884.8902900218964,844.8543117046356,None,884.2569110393524,None,Listen to the question and speak out your answer!,889.4072549343109,None,889.4067225456238,891.4075169563293,Die Taxifahrer sollten während Mitternacht nicht hupen.,hupen,890.7908298969269,None,894.3409969806671,None,905.9917988777161,None,907.3916699886322,908.3917200565338,./data/Subject_10/Session_01/Exp_data/2020_Aug_06_1242/rec_QA_run_02_block_000_trial_000.wav,,,,10,01,English,A2,True,False,True,False,False,True,True,True,True,True,True,True,No,2,No,No,No,No,2020_Aug_06_1242,nibs_stage_1,3.2.3,60.0247007926865,
2,0,2,0,,,,,0,0,0,0,1,0,1,0,,,,,,,,,,,,,,,,,,,,,,,,,,,,,,,,,,,,,,,,,,,,,,,,,Listen to the question and speak out your answer!,910.4583599567413,None,910.4417767524719,912.4417328834534,"Sie hat den Newsletter abonniert, um weitere Informationen zu erhalten.",abonniert,911.841903924942,None,916.5585389137268,917.5588638782501,927.0428059101105,None,928.4427649974823,929.4428288936615,./data/Subject_10/Session_01/Exp_data/2020_Aug_06_1242/rec_QA_run_02_block_000_trial_001.wav,,,,10,01,English,A2,True,False,True,False,False,True,True,True,True,True,True,True,No,2,No,No,No,No,2020_Aug_06_1242,nibs_stage_1,3.2.3,60.0247007926865,
2,0,2,0,,,,,0,0,0,0,2,0,2,0,,,,,,,,,,,,,,,,,,,,,,,,,,,,,,,,,,,,,,,,,,,,,,,,,Listen to the question and speak out your answer!,931.4932630062103,None,931.4759566783905,933.4763889312744,"Es ist Zeit, diesen Ort zu verlassen.",verlassen,932.8596878051758,None,935.6431348323822,None,948.0603790283203,949.0605528354645,949.4606268405914,950.4607930183411,./data/Subject_10/Session_01/Exp_data/2020_Aug_06_1242/rec_QA_run_02_block_000_trial_002.wav,,,,10,01,English,A2,True,False,True,False,False,True,True,True,True,True,True,True,No,2,No,No,No,No,2020_Aug_06_1242,nibs_stage_1,3.2.3,60.0247007926865,
2,0,2,0,,,,,0,0,0,0,3,0,3,0,,,,,,,,,,,,,,,,,,,,,,,,,,,,,,,,,,,,,,,,,,,,,,,,,Listen to the question and speak out your answer!,952.5278160572052,None,952.5103626251221,954.5104968547821,"Danke für den Smoothie, den Sie mir machten.",machten,953.9105949401855,956.4940078258514,956.8940470218658,None,969.0946879386902,None,970.4946780204773,971.4948098659515,./data/Subject_10/Session_01/Exp_data/2020_Aug_06_1242/rec_QA_run_02_block_000_trial_003.wav,,,,10,01,English,A2,True,False,True,False,False,True,True,True,True,True,True,True,No,2,No,No,No,No,2020_Aug_06_1242,nibs_stage_1,3.2.3,60.0247007926865,
2,0,2,0,,,,,0,0,0,0,4,0,4,0,,,,,,,,,,,,,,,,,,,,,,,,,,,,,,,,,,,,,,,,,,,,,,,,,Listen to the question and speak out your answer!,973.5616588592529,None,973.544805765152,975.5449228286743,Der Artikel hat uns über die Ursache des Erderwärmung informiert.,informiert,974.9283068180084,None,979.1785259246826,None,990.1292300224304,991.1291499137878,991.5291938781738,992.529228925705,./data/Subject_10/Session_01/Exp_data/2020_Aug_06_1242/rec_QA_run_02_block_000_trial_004.wav,,,,10,01,English,A2,True,False,True,False,False,True,True,True,True,True,True,True,No,2,No,No,No,No,2020_Aug_06_1242,nibs_stage_1,3.2.3,60.0247007926865,
2,0,2,0,,,,,0,0,0,0,5,0,5,0,,,,,,,,,,,,,,,,,,,,,,,,,,,,,,,,,,,,,,,,,,,,,,,,,Listen to the question and speak out your answer!,994.5962040424347,None,994.5793018341064,996.5794188976288,"Die Firma hat einen Fachmann hinzugezogen, um das Netzwerk zu reparieren.",reparieren,995.9795279502869,None,1001.1463568210602,1002.1463940143585,1011.180114030838,None,1012.5802910327911,1013.5804400444031,./data/Subject_10/Session_01/Exp_data/2020_Aug_06_1242/rec_QA_run_02_block_000_trial_005.wav,,,,10,01,English,A2,True,False,True,False,False,True,True,True,True,True,True,True,No,2,No,No,No,No,2020_Aug_06_1242,nibs_stage_1,3.2.3,60.0247007926865,
2,0,2,0,,,,,0,0,0,0,6,0,6,0,,,,,,,,,,,,,,,,,,,,,,,,,,,,,,,,,,,,,,,,,,,,,,,,,Listen to the question and speak out your answer!,1015.6311750411987,None,1015.6135678291321,1017.6140048503876,Die Milch riecht verdorben.,riecht,1016.9974009990692,1018.6140630245209,1019.0140569210052,None,1032.1981399059296,None,1033.598170042038,1034.598359823227,./data/Subject_10/Session_01/Exp_data/2020_Aug_06_1242/rec_QA_run_02_block_000_trial_006.wav,,,,10,01,English,A2,True,False,True,False,False,True,True,True,True,True,True,True,No,2,No,No,No,No,2020_Aug_06_1242,nibs_stage_1,3.2.3,60.0247007926865,
2,0,2,0,,,,,0,0,0,0,7,0,7,0,,,,,,,,,,,,,,,,,,,,,,,,,,,,,,,,,,,,,,,,,,,,,,,,,Listen to the question and speak out your answer!,1036.6651158332825,None,1036.6481766700745,1038.6482269763947,Sonja nimmt ihren Tee mit Milch und Zucker.,nimmt,1038.0482549667358,None,1041.1816799640656,1042.1818079948425,1053.249648809433,None,1054.6659908294678,None,./data/Subject_10/Session_01/Exp_data/2020_Aug_06_1242/rec_QA_run_02_block_000_trial_007.wav,,,,10,01,English,A2,True,False,True,False,False,True,True,True,True,True,True,True,No,2,No,No,No,No,2020_Aug_06_1242,nibs_stage_1,3.2.3,60.0247007926865,
2,0,2,0,,,,,0,0,0,0,8,0,8,0,,,,,,,,,,,,,,,,,,,,,,,,,,,,,,,,,,,,,,,,,,,,,,,,,Listen to the question and speak out your answer!,1057.7159368991852,None,1057.6990218162537,1059.6994009017944,Wie lange muss Pat heute im Firma noch arbeiten?,arbeiten,1059.0826179981232,1061.8664588928223,1062.2663140296936,None,1074.2835409641266,None,1075.6836199760437,1076.6836259365082,./data/Subject_10/Session_01/Exp_data/2020_Aug_06_1242/rec_QA_run_02_block_000_trial_008.wav,,,,10,01,English,A2,True,False,True,False,False,True,True,True,True,True,True,True,No,2,No,No,No,No,2020_Aug_06_1242,nibs_stage_1,3.2.3,60.0247007926865,
2,0,2,0,,,,,0,0,0,0,9,0,9,0,,,,,,,,,,,,,,,,,,,,,,,,,,,,,,,,,,,,,,,,,,,,,,,,,Listen to the question and speak out your answer!,1078.733892917633,None,1078.7167537212372,1080.717159986496,Im gleichen Jahr hat der amerikanische Bürgerkrieg begonnen.,begonnen,1080.1005899906158,None,1083.983983039856,1084.9840459823608,1095.301160812378,None,1096.7013309001923,1097.7013828754425,./data/Subject_10/Session_01/Exp_data/2020_Aug_06_1242/rec_QA_run_02_block_000_trial_009.wav,,,,10,01,English,A2,True,False,True,False,False,True,True,True,True,True,True,True,No,2,No,No,No,No,2020_Aug_06_1242,nibs_stage_1,3.2.3,60.0247007926865,
2,0,2,0,,,,,0,0,0,0,10,0,10,0,,,,,,,,,,,,,,,,,,,,,,,,,,,,,,,,,,,,,,,,,,,,,,,,,Listen to the question and speak out your answer!,1099.7870209217072,None,1099.7680406570435,1101.7685589790344,Bitte gib mir ein Stück Kuchen und eine Schale mit Obst.,gib,1101.1518199443817,1104.5185759067535,1104.9350628852844,None,1116.3525569438934,None,1117.7690799236298,None,./data/Subject_10/Session_01/Exp_data/2020_Aug_06_1242/rec_QA_run_02_block_000_trial_010.wav,,,,10,01,English,A2,True,False,True,False,False,True,True,True,True,True,True,True,No,2,No,No,No,No,2020_Aug_06_1242,nibs_stage_1,3.2.3,60.0247007926865,
2,0,2,0,,,,,0,0,0,0,11,0,11,0,,,,,,,,,,,,,,,,,,,,,,,,,,,,,,,,,,,,,,,,,,,,,,,,,Listen to the question and speak out your answer!,1120.8027958869934,None,1120.7858576774597,1122.7862288951874,"Wenn Sie mit diesem Produkt nicht zufrieden sind, können wir eine Alternative anbieten.",anbieten,1122.1861939430237,None,1127.5030779838562,1128.5031778812408,1137.3871829509735,None,1138.7870450019836,1139.7870988845825,./data/Subject_10/Session_01/Exp_data/2020_Aug_06_1242/rec_QA_run_02_block_000_trial_011.wav,,,,10,01,English,A2,True,False,True,False,False,True,True,True,True,True,True,True,No,2,No,No,No,No,2020_Aug_06_1242,nibs_stage_1,3.2.3,60.0247007926865,
2,0,2,0,,,,,0,0,0,0,12,0,12,0,,,,,,,,,,,,,,,,,,,,,,,,,,,,,,,,,,,,,,,,,,,,,,,,,Listen to the question and speak out your answer!,1141.837259054184,None,1141.8202266693115,1143.8207960128784,Die Mutter rührt in ihren Töpfen und Pfannen.,rührt,1143.2039468288422,1145.85409283638,1146.2711358070374,1147.2708580493927,1158.40473985672,1159.4050149917603,1159.804769039154,1160.8048758506775,./data/Subject_10/Session_01/Exp_data/2020_Aug_06_1242/rec_QA_run_02_block_000_trial_012.wav,,,,10,01,English,A2,True,False,True,False,False,True,True,True,True,True,True,True,No,2,No,No,No,No,2020_Aug_06_1242,nibs_stage_1,3.2.3,60.0247007926865,
2,0,2,0,,,,,0,0,0,0,13,0,13,0,,,,,,,,,,,,,,,,,,,,,,,,,,,,,,,,,,,,,,,,,,,,,,,,,Listen to the question and speak out your answer!,1162.8719408512115,None,1162.8547086715698,1164.8551099300385,Sie holte ihre Einkäufe aus dem Korb.,holte,1164.2550480365753,None,1167.155102968216,None,1179.4558939933777,None,1180.8559319972992,1181.8559939861298,./data/Subject_10/Session_01/Exp_data/2020_Aug_06_1242/rec_QA_run_02_block_000_trial_013.wav,,,,10,01,English,A2,True,False,True,False,False,True,True,True,True,True,True,True,No,2,No,No,No,No,2020_Aug_06_1242,nibs_stage_1,3.2.3,60.0247007926865,
2,0,2,0,,,,,0,0,0,0,14,0,14,0,,,,,,,,,,,,,,,,,,,,,,,,,,,,,,,,,,,,,,,,,,,,,,,,,Listen to the question and speak out your answer!,1183.923084974289,None,1183.8891217708588,1185.88951587677,"Es macht Spaß, mit Freunden philosophische Fragen zu diskutieren.",diskutieren,1185.289794921875,1189.4897010326385,1189.9063739776611,None,1200.4902529716492,None,1201.9067318439484,None,./data/Subject_10/Session_01/Exp_data/2020_Aug_06_1242/rec_QA_run_02_block_000_trial_014.wav,,,,10,01,English,A2,True,False,True,False,False,True,True,True,True,True,True,True,No,2,No,No,No,No,2020_Aug_06_1242,nibs_stage_1,3.2.3,60.0247007926865,
2,0,2,0,,,,,0,0,0,0,15,0,15,0,,,,,,,,,,,,,,,,,,,,,,,,,,,,,,,,,,,,,,,,,,,,,,,,,Listen to the question and speak out your answer!,1204.941185951233,None,1204.9234626293182,1206.9239358901978,"Ich möchte, dass Sie das Wort mit Ihren eigenen Worten erklären!",erklären,1206.3072619438171,1210.1408138275146,1210.5574729442596,None,1221.5080540180206,None,1222.9080839157104,1223.9248769283295,./data/Subject_10/Session_01/Exp_data/2020_Aug_06_1242/rec_QA_run_02_block_000_trial_015.wav,,,,10,01,English,A2,True,False,True,False,False,True,True,True,True,True,True,True,No,2,No,No,No,No,2020_Aug_06_1242,nibs_stage_1,3.2.3,60.0247007926865,
2,0,2,0,,,,,0,0,0,0,16,0,16,0,,,,,,,,,,,,,,,,,,,,,,,,,,,,,,,,,,,,,,,,,,,,,,,,,Listen to the question and speak out your answer!,1225.9746308326721,None,1225.9580047130585,1227.9583530426025,"Wir brauchen Obst und Gemüse, also muss ich auf den Markt gehen.",gehen,1227.3749499320984,1231.158532857895,1231.5418128967285,None,1242.5591390132904,None,1243.9923958778381,None,./data/Subject_10/Session_01/Exp_data/2020_Aug_06_1242/rec_QA_run_02_block_000_trial_016.wav,,,,10,01,English,A2,True,False,True,False,False,True,True,True,True,True,True,True,No,2,No,No,No,No,2020_Aug_06_1242,nibs_stage_1,3.2.3,60.0247007926865,
2,0,2,0,,,,,0,0,0,0,17,0,17,0,,,,,,,,,,,,,,,,,,,,,,,,,,,,,,,,,,,,,,,,,,,,,,,,,Listen to the question and speak out your answer!,1247.0093870162964,None,1246.9924087524414,1248.992791891098,Mir ist etwas Unangenehmes passiert.,passiert,1248.37606883049,None,1251.142910003662,None,1263.5766599178314,None,1264.993407011032,None,./data/Subject_10/Session_01/Exp_data/2020_Aug_06_1242/rec_QA_run_02_block_000_trial_017.wav,,,,10,01,English,A2,True,False,True,False,False,True,True,True,True,True,True,True,No,2,No,No,No,No,2020_Aug_06_1242,nibs_stage_1,3.2.3,60.0247007926865,
2,0,2,0,,,,,0,0,0,0,18,0,18,0,,,,,,,,,,,,,,,,,,,,,,,,,,,,,,,,,,,,,,,,,,,,,,,,,Listen to the question and speak out your answer!,1268.0603878498077,None,1268.043250799179,1270.0603368282318,"Ich kann es kaum abwarten, das Video meiner Hochzeit zu sehen.",abwarten,1269.4436309337616,1273.12717294693,1273.5104908943176,1274.527240037918,1284.644425868988,None,1286.0611939430237,None,./data/Subject_10/Session_01/Exp_data/2020_Aug_06_1242/rec_QA_run_02_block_000_trial_018.wav,,,,10,01,English,A2,True,False,True,False,False,True,True,True,True,True,True,True,No,2,No,No,No,No,2020_Aug_06_1242,nibs_stage_1,3.2.3,60.0247007926865,
2,0,2,0,,,,,0,0,0,0,19,0,19,0,,,,,,,,,,,,,,,,,,,,,,,,,,,,,,,,,,,,,,,,,,,,,,,,,Listen to the question and speak out your answer!,1289.1283068656921,None,1289.110991716385,1291.12806391716,Viele Tiere leben in Afrika.,leben,1290.5113968849182,None,1293.2781918048859,None,1305.712177991867,None,1307.128921031952,None,./data/Subject_10/Session_01/Exp_data/2020_Aug_06_1242/rec_QA_run_02_block_000_trial_019.wav,,,,10,01,English,A2,True,False,True,False,False,True,True,True,True,True,True,True,No,2,No,No,No,No,2020_Aug_06_1242,nibs_stage_1,3.2.3,60.0247007926865,
2,0,2,0,,,,,0,0,0,0,20,0,20,0,,,,,,,,,,,,,,,,,,,,,,,,,,,,,,,,,,,,,,,,,,,,,,,,,Listen to the question and speak out your answer!,1310.1631338596344,None,1310.1454486846924,1312.1626198291779,Das neue Teammitglied wurde über die Situation informiert.,informiert,1311.5458188056946,1315.2296278476715,1315.612694978714,None,1326.746610879898,1327.763314962387,1328.163377046585,None,./data/Subject_10/Session_01/Exp_data/2020_Aug_06_1242/rec_QA_run_02_block_000_trial_020.wav,,,,10,01,English,A2,True,False,True,False,False,True,True,True,True,True,True,True,No,2,No,No,No,No,2020_Aug_06_1242,nibs_stage_1,3.2.3,60.0247007926865,
2,0,2,0,,,,,0,0,0,0,21,0,21,0,,,,,,,,,,,,,,,,,,,,,,,,,,,,,,,,,,,,,,,,,,,,,,,,,Listen to the question and speak out your answer!,1331.2302849292755,None,1331.1965277194977,1333.2302808761597,Die Sonne scheint durch die grauen Wolken.,scheint,1332.6136689186096,None,1335.3803989887238,1336.397197008133,1347.8144550323486,None,1349.2311868667603,None,./data/Subject_10/Session_01/Exp_data/2020_Aug_06_1242/rec_QA_run_02_block_000_trial_021.wav,,,,10,01,English,A2,True,False,True,False,False,True,True,True,True,True,True,True,No,2,No,No,No,No,2020_Aug_06_1242,nibs_stage_1,3.2.3,60.0247007926865,
2,0,2,0,,,,,0,0,0,0,22,0,22,0,,,,,,,,,,,,,,,,,,,,,,,,,,,,,,,,,,,,,,,,,,,,,,,,,Listen to the question and speak out your answer!,1352.248263835907,None,1352.2310416698456,1354.2481269836426,Mit dem Rezept kann man die Medizin in der Apotheke kaufen.,kaufen,1353.6314368247986,None,1357.6649639606476,None,1368.8323509693146,None,1370.2489550113678,None,./data/Subject_10/Session_01/Exp_data/2020_Aug_06_1242/rec_QA_run_02_block_000_trial_022.wav,,,,10,01,English,A2,True,False,True,False,False,True,True,True,True,True,True,True,No,2,No,No,No,No,2020_Aug_06_1242,nibs_stage_1,3.2.3,60.0247007926865,
2,0,2,0,,,,,0,0,0,0,23,0,23,0,,,,,,,,,,,,,,,,,,,,,,,,,,,,,,,,,,,,,,,,,,,,,,,,,Listen to the question and speak out your answer!,1373.2990770339966,None,1373.2820546627045,1375.2991700172424,"Ich versuche, jede Woche ein Buch zu lesen.",lesen,1374.6825168132782,None,1378.01602602005,None,1389.8832218647003,None,1391.3000009059906,None,./data/Subject_10/Session_01/Exp_data/2020_Aug_06_1242/rec_QA_run_02_block_000_trial_023.wav,,,,10,01,English,A2,True,False,True,False,False,True,True,True,True,True,True,True,No,2,No,No,No,No,2020_Aug_06_1242,nibs_stage_1,3.2.3,60.0247007926865,
2,0,2,0,,,,,0,0,0,0,24,0,24,0,,,,,,,,,,,,,,,,,,,,,,,,,,,,,,,,,,,,,,,,,,,,,,,,,Listen to the question and speak out your answer!,1394.383731842041,None,1394.366515636444,1396.3835608959198,Unser Biolehrer unterrichtet uns auch machmal im Grünen.,unterrichtet,1395.7668628692627,1399.217041015625,1399.6003019809723,None,1410.9676468372345,1411.9845049381256,1412.3844678401947,None,./data/Subject_10/Session_01/Exp_data/2020_Aug_06_1242/rec_QA_run_02_block_000_trial_024.wav,,,,10,01,English,A2,True,False,True,False,False,True,True,True,True,True,True,True,No,2,No,No,No,No,2020_Aug_06_1242,nibs_stage_1,3.2.3,60.0247007926865,
2,0,2,0,,,,,0,0,0,0,,,,,,,,,,,,,,,,,,,,,,,,,,,,,,,,,,,,,,,,,,1416.4346978664398,None,,,,,,,,,,,,,,,,,,,,,,,,,,,,,10,01,English,A2,True,False,True,False,False,True,True,True,True,True,True,True,No,2,No,No,No,No,2020_Aug_06_1242,nibs_stage_1,3.2.3,60.0247007926865,
2,0,2,0,,,,,1,0,1,0,0,0,0,0,,,,,,,,,,,,,,,,,,,,,,,,,,,,,,,,,,,,,,,,,,,,,,,,,Listen to the question and speak out your answer!,1458.6867940425873,None,1458.6531126499176,1460.6868879795074,Ein Gewitter besteht aus Blitz und Donner.,besteht,1460.0701749324799,None,1462.9370000362396,None,1475.2376689910889,None,1476.654412984848,None,./data/Subject_10/Session_01/Exp_data/2020_Aug_06_1242/rec_QA_run_02_block_001_trial_000.wav,,,,10,01,English,A2,True,False,True,False,False,True,True,True,True,True,True,True,No,2,No,No,No,No,2020_Aug_06_1242,nibs_stage_1,3.2.3,60.0247007926865,
2,0,2,0,,,,,1,0,1,0,1,0,1,0,,,,,,,,,,,,,,,,,,,,,,,,,,,,,,,,,,,,,,,,,,,,,,,,,Listen to the question and speak out your answer!,1479.70481300354,None,1479.687570810318,1481.7046689987183,"Sie war zu stolz, um ihn um Hilfe zu bitten.",bitten,1481.0879428386688,None,1484.3881289958954,None,1496.2887508869171,1497.3054718971252,1497.7056968212128,None,./data/Subject_10/Session_01/Exp_data/2020_Aug_06_1242/rec_QA_run_02_block_001_trial_001.wav,,,,10,01,English,A2,True,False,True,False,False,True,True,True,True,True,True,True,No,2,No,No,No,No,2020_Aug_06_1242,nibs_stage_1,3.2.3,60.0247007926865,
2,0,2,0,,,,,1,0,1,0,2,0,2,0,,,,,,,,,,,,,,,,,,,,,,,,,,,,,,,,,,,,,,,,,,,,,,,,,Listen to the question and speak out your answer!,1500.7724339962006,None,1500.7386796474457,1502.7724418640137,Du musst die Verantwortung für deine Taten übernehmen.,übernehmen,1502.1557149887085,1505.1727719306946,1505.556186914444,None,1517.339859008789,None,1518.7566540241241,None,./data/Subject_10/Session_01/Exp_data/2020_Aug_06_1242/rec_QA_run_02_block_001_trial_002.wav,,,,10,01,English,A2,True,False,True,False,False,True,True,True,True,True,True,True,No,2,No,No,No,No,2020_Aug_06_1242,nibs_stage_1,3.2.3,60.0247007926865,
2,0,2,0,,,,,1,0,1,0,3,0,3,0,,,,,,,,,,,,,,,,,,,,,,,,,,,,,,,,,,,,,,,,,,,,,,,,,Listen to the question and speak out your answer!,1521.823961019516,None,1521.7897617816925,1523.8236470222473,Floras Eltern machen eine Kreuzfahrt mit einem riesigen Schiff auf dem Meer.,machen,1523.206810951233,None,1528.040573835373,1529.0571110248566,1538.4075949192047,None,1539.8243689537048,None,./data/Subject_10/Session_01/Exp_data/2020_Aug_06_1242/rec_QA_run_02_block_001_trial_003.wav,,,,10,01,English,A2,True,False,True,False,False,True,True,True,True,True,True,True,No,2,No,No,No,No,2020_Aug_06_1242,nibs_stage_1,3.2.3,60.0247007926865,
2,0,2,0,,,,,1,0,1,0,4,0,4,0,,,,,,,,,,,,,,,,,,,,,,,,,,,,,,,,,,,,,,,,,,,,,,,,,Listen to the question and speak out your answer!,1542.8579080104828,None,1542.8241906166077,1544.8579189777374,In diesem Geschäft kann man billig einkaufen.,einkaufen,1544.2080128192902,None,1547.1413509845734,None,1559.425467967987,None,1560.8421149253845,None,./data/Subject_10/Session_01/Exp_data/2020_Aug_06_1242/rec_QA_run_02_block_001_trial_004.wav,,,,10,01,English,A2,True,False,True,False,False,True,True,True,True,True,True,True,No,2,No,No,No,No,2020_Aug_06_1242,nibs_stage_1,3.2.3,60.0247007926865,
2,0,2,0,,,,,1,0,1,0,5,0,5,0,,,,,,,,,,,,,,,,,,,,,,,,,,,,,,,,,,,,,,,,,,,,,,,,,Listen to the question and speak out your answer!,1563.9096369743347,None,1563.87530875206,1565.9090299606323,Ich gratuliere dir zum Abschluss mit höchster Auszeichnung. ,gratuliere,1565.2589898109436,None,1569.1592018604279,None,1580.4597868919373,1581.4765198230743,1581.876716852188,None,./data/Subject_10/Session_01/Exp_data/2020_Aug_06_1242/rec_QA_run_02_block_001_trial_005.wav,,,,10,01,English,A2,True,False,True,False,False,True,True,True,True,True,True,True,No,2,No,No,No,No,2020_Aug_06_1242,nibs_stage_1,3.2.3,60.0247007926865,
2,0,2,0,,,,,1,0,1,0,6,0,6,0,,,,,,,,,,,,,,,,,,,,,,,,,,,,,,,,,,,,,,,,,,,,,,,,,Listen to the question and speak out your answer!,1584.944991827011,None,1584.9264488220215,1586.9434649944305,"Ich empfehle dieses Buch jedem, der an Geschichte interessiert ist.",empfehle,1586.3267998695374,1590.4103908538818,1590.7936489582062,None,1601.527557849884,1602.544261932373,1602.9442930221558,None,./data/Subject_10/Session_01/Exp_data/2020_Aug_06_1242/rec_QA_run_02_block_001_trial_006.wav,,,,10,01,English,A2,True,False,True,False,False,True,True,True,True,True,True,True,No,2,No,No,No,No,2020_Aug_06_1242,nibs_stage_1,3.2.3,60.0247007926865,
2,0,2,0,,,,,1,0,1,0,7,0,7,0,,,,,,,,,,,,,,,,,,,,,,,,,,,,,,,,,,,,,,,,,,,,,,,,,Listen to the question and speak out your answer!,1606.011745929718,None,1605.9774458408356,1608.0112400054932,Er entschuldigte sich für seinen Fehler.,entschuldigte,1607.3611798286438,None,1610.194662809372,None,1622.5619699954987,None,1623.9786999225616,None,./data/Subject_10/Session_01/Exp_data/2020_Aug_06_1242/rec_QA_run_02_block_001_trial_007.wav,,,,10,01,English,A2,True,False,True,False,False,True,True,True,True,True,True,True,No,2,No,No,No,No,2020_Aug_06_1242,nibs_stage_1,3.2.3,60.0247007926865,
2,0,2,0,,,,,1,0,1,0,8,0,8,0,,,,,,,,,,,,,,,,,,,,,,,,,,,,,,,,,,,,,,,,,,,,,,,,,Listen to the question and speak out your answer!,1627.0456140041351,None,1627.0119376182556,1629.04563498497,Der Hotelier buchte zwei Übernachtungen für uns,buchte,1628.4288878440857,None,1632.1290729045868,None,1643.6297478675842,None,1645.046380996704,None,./data/Subject_10/Session_01/Exp_data/2020_Aug_06_1242/rec_QA_run_02_block_001_trial_008.wav,,,,10,01,English,A2,True,False,True,False,False,True,True,True,True,True,True,True,No,2,No,No,No,No,2020_Aug_06_1242,nibs_stage_1,3.2.3,60.0247007926865,
2,0,2,0,,,,,1,0,1,0,9,0,9,0,,,,,,,,,,,,,,,,,,,,,,,,,,,,,,,,,,,,,,,,,,,,,,,,,Listen to the question and speak out your answer!,1648.0800409317017,None,1648.0462617874146,1650.0800800323486,Im Mittelalter öffnete das erste Kaufhaus in Europa.,öffnete,1649.463271856308,1653.0801968574524,1653.4635820388794,None,1664.6641528606415,None,1666.0808069705963,None,./data/Subject_10/Session_01/Exp_data/2020_Aug_06_1242/rec_QA_run_02_block_001_trial_009.wav,,,,10,01,English,A2,True,False,True,False,False,True,True,True,True,True,True,True,No,2,No,No,No,No,2020_Aug_06_1242,nibs_stage_1,3.2.3,60.0247007926865,
2,0,2,0,,,,,1,0,1,0,10,0,10,0,,,,,,,,,,,,,,,,,,,,,,,,,,,,,,,,,,,,,,,,,,,,,,,,,Listen to the question and speak out your answer!,1669.0989270210266,None,1669.0806486606598,1671.0978178977966,"Ich muss einen Schirm holen, weil es regnet.",holen,1670.4812309741974,None,1673.514524936676,None,1685.6824560165405,None,1687.065335035324,None,./data/Subject_10/Session_01/Exp_data/2020_Aug_06_1242/rec_QA_run_02_block_001_trial_010.wav,,,,10,01,English,A2,True,False,True,False,False,True,True,True,True,True,True,True,No,2,No,No,No,No,2020_Aug_06_1242,nibs_stage_1,3.2.3,60.0247007926865,
2,0,2,0,,,,,1,0,1,0,11,0,11,0,,,,,,,,,,,,,,,,,,,,,,,,,,,,,,,,,,,,,,,,,,,,,,,,,Listen to the question and speak out your answer!,1690.1161279678345,None,1690.0818457603455,1692.1155798435211,Ich muss mein Versprechen halten.,halten,1691.465539932251,1693.4156448841095,1693.8323249816895,1694.8490369319916,1706.6663129329681,1707.6830439567566,1708.083072900772,None,./data/Subject_10/Session_01/Exp_data/2020_Aug_06_1242/rec_QA_run_02_block_001_trial_011.wav,,,,10,01,English,A2,True,False,True,False,False,True,True,True,True,True,True,True,No,2,No,No,No,No,2020_Aug_06_1242,nibs_stage_1,3.2.3,60.0247007926865,
2,0,2,0,,,,,1,0,1,0,12,0,12,0,,,,,,,,,,,,,,,,,,,,,,,,,,,,,,,,,,,,,,,,,,,,,,,,,Listen to the question and speak out your answer!,1711.150486946106,None,1711.1328465938568,1713.1500148773193,Die äußeren Planeten bestehen aus Gas.,bestehen,1712.5332958698273,1715.2834429740906,1715.6667928695679,None,1727.734071969986,1728.7508080005646,1729.1507530212402,None,./data/Subject_10/Session_01/Exp_data/2020_Aug_06_1242/rec_QA_run_02_block_001_trial_012.wav,,,,10,01,English,A2,True,False,True,False,False,True,True,True,True,True,True,True,No,2,No,No,No,No,2020_Aug_06_1242,nibs_stage_1,3.2.3,60.0247007926865,
2,0,2,0,,,,,1,0,1,0,13,0,13,0,,,,,,,,,,,,,,,,,,,,,,,,,,,,,,,,,,,,,,,,,,,,,,,,,Listen to the question and speak out your answer!,1732.1845409870148,None,1732.150830745697,1734.1844470500946,"Ich war begeistert, als ich das Spiel fast gewonnen hätte.",gewonnen,1733.5678088665009,None,1737.5012629032135,None,1748.7686688899994,None,1750.185269832611,None,./data/Subject_10/Session_01/Exp_data/2020_Aug_06_1242/rec_QA_run_02_block_001_trial_013.wav,,,,10,01,English,A2,True,False,True,False,False,True,True,True,True,True,True,True,No,2,No,No,No,No,2020_Aug_06_1242,nibs_stage_1,3.2.3,60.0247007926865,
2,0,2,0,,,,,1,0,1,0,14,0,14,0,,,,,,,,,,,,,,,,,,,,,,,,,,,,,,,,,,,,,,,,,,,,,,,,,Listen to the question and speak out your answer!,1753.219311952591,None,1753.1850957870483,1755.2188439369202,Sarah badet lieber abends in der Wanne.,badet,1754.602154970169,1757.0523869991302,1757.4356298446655,None,1769.802934885025,1770.8198039531708,1771.2198560237885,None,./data/Subject_10/Session_01/Exp_data/2020_Aug_06_1242/rec_QA_run_02_block_001_trial_014.wav,,,,10,01,English,A2,True,False,True,False,False,True,True,True,True,True,True,True,No,2,No,No,No,No,2020_Aug_06_1242,nibs_stage_1,3.2.3,60.0247007926865,
2,0,2,0,,,,,1,0,1,0,15,0,15,0,,,,,,,,,,,,,,,,,,,,,,,,,,,,,,,,,,,,,,,,,,,,,,,,,Listen to the question and speak out your answer!,1774.253723859787,None,1774.2197008132935,1776.253574848175,Sam hat gerade das Abitur bestanden und wird sich für die Universität Wien bewerben. ,bewerben,1775.6365849971771,1780.7870948314667,1781.1701788902283,None,1790.8373658657074,None,1792.2540938854218,None,./data/Subject_10/Session_01/Exp_data/2020_Aug_06_1242/rec_QA_run_02_block_001_trial_015.wav,,,,10,01,English,A2,True,False,True,False,False,True,True,True,True,True,True,True,No,2,No,No,No,No,2020_Aug_06_1242,nibs_stage_1,3.2.3,60.0247007926865,
2,0,2,0,,,,,1,0,1,0,16,0,16,0,,,,,,,,,,,,,,,,,,,,,,,,,,,,,,,,,,,,,,,,,,,,,,,,,Listen to the question and speak out your answer!,1795.288682937622,None,1795.2539086341858,1797.287857055664,"Nur wenn mein Haar schmutzig ist, werde ich es bürsten.",bürsten,1796.6376550197601,None,1800.104506969452,None,1811.8385648727417,None,1813.255192041397,None,./data/Subject_10/Session_01/Exp_data/2020_Aug_06_1242/rec_QA_run_02_block_001_trial_016.wav,,,,10,01,English,A2,True,False,True,False,False,True,True,True,True,True,True,True,No,2,No,No,No,No,2020_Aug_06_1242,nibs_stage_1,3.2.3,60.0247007926865,
2,0,2,0,,,,,1,0,1,0,17,0,17,0,,,,,,,,,,,,,,,,,,,,,,,,,,,,,,,,,,,,,,,,,,,,,,,,,Listen to the question and speak out your answer!,1816.3229160308838,None,1816.3050467967987,1818.3221259117126,Du solltest deiner Geliebten Blumen zum Geburtstag schenken.,schenken,1817.705538034439,None,1821.572292804718,None,1832.9062089920044,None,1834.3229508399963,None,./data/Subject_10/Session_01/Exp_data/2020_Aug_06_1242/rec_QA_run_02_block_001_trial_017.wav,,,,10,01,English,A2,True,False,True,False,False,True,True,True,True,True,True,True,No,2,No,No,No,No,2020_Aug_06_1242,nibs_stage_1,3.2.3,60.0247007926865,
2,0,2,0,,,,,1,0,1,0,18,0,18,0,,,,,,,,,,,,,,,,,,,,,,,,,,,,,,,,,,,,,,,,,,,,,,,,,Listen to the question and speak out your answer!,1837.3911068439484,None,1837.3727917671204,1839.3898930549622,Die Präsentation dauert eine halbe Stunde.,dauert,1838.773185968399,1841.5566539764404,1841.9067859649658,None,1853.9739530086517,None,1855.3907070159912,None,./data/Subject_10/Session_01/Exp_data/2020_Aug_06_1242/rec_QA_run_02_block_001_trial_018.wav,,,,10,01,English,A2,True,False,True,False,False,True,True,True,True,True,True,True,No,2,No,No,No,No,2020_Aug_06_1242,nibs_stage_1,3.2.3,60.0247007926865,
2,0,2,0,,,,,1,0,1,0,19,0,19,0,,,,,,,,,,,,,,,,,,,,,,,,,,,,,,,,,,,,,,,,,,,,,,,,,Listen to the question and speak out your answer!,1858.4425740242004,None,1858.423888683319,1860.4412410259247,Marco möchte den Brief zur Post bringen.,bringen,1859.8245220184326,1862.2748548984528,1862.6577949523926,None,1875.025043964386,None,1876.4418330192566,None,./data/Subject_10/Session_01/Exp_data/2020_Aug_06_1242/rec_QA_run_02_block_001_trial_019.wav,,,,10,01,English,A2,True,False,True,False,False,True,True,True,True,True,True,True,No,2,No,No,No,No,2020_Aug_06_1242,nibs_stage_1,3.2.3,60.0247007926865,
2,0,2,0,,,,,1,0,1,0,20,0,20,0,,,,,,,,,,,,,,,,,,,,,,,,,,,,,,,,,,,,,,,,,,,,,,,,,Listen to the question and speak out your answer!,1879.508661031723,None,1879.4749736785889,1881.508733034134,"In Neuseeland und Irland ist es so grün, weil es besonders oft regnet.",regnet,1880.89231300354,1885.2426970005035,1885.6256358623505,None,1896.0930030345917,None,1897.5095648765564,None,./data/Subject_10/Session_01/Exp_data/2020_Aug_06_1242/rec_QA_run_02_block_001_trial_020.wav,,,,10,01,English,A2,True,False,True,False,False,True,True,True,True,True,True,True,No,2,No,No,No,No,2020_Aug_06_1242,nibs_stage_1,3.2.3,60.0247007926865,
2,0,2,0,,,,,1,0,1,0,21,0,21,0,,,,,,,,,,,,,,,,,,,,,,,,,,,,,,,,,,,,,,,,,,,,,,,,,Listen to the question and speak out your answer!,1900.5434410572052,None,1900.526086807251,1902.5431518554688,Der Bus fährt jede Stunde.,fährt,1901.9264388084412,None,1904.2265799045563,None,1917.12721991539,None,1918.54403090477,None,./data/Subject_10/Session_01/Exp_data/2020_Aug_06_1242/rec_QA_run_02_block_001_trial_021.wav,,,,10,01,English,A2,True,False,True,False,False,True,True,True,True,True,True,True,No,2,No,No,No,No,2020_Aug_06_1242,nibs_stage_1,3.2.3,60.0247007926865,
2,0,2,0,,,,,1,0,1,0,22,0,22,0,,,,,,,,,,,,,,,,,,,,,,,,,,,,,,,,,,,,,,,,,,,,,,,,,Listen to the question and speak out your answer!,1921.5625748634338,None,1921.5438177585602,1923.5608968734741,"Wir haben die Preise gesenkt, um neue Kunden zu gewinnen.",gewinnen,1922.9442009925842,None,1926.8110918998718,None,1938.144994020462,None,1939.5618269443512,None,./data/Subject_10/Session_01/Exp_data/2020_Aug_06_1242/rec_QA_run_02_block_001_trial_022.wav,,,,10,01,English,A2,True,False,True,False,False,True,True,True,True,True,True,True,No,2,No,No,No,No,2020_Aug_06_1242,nibs_stage_1,3.2.3,60.0247007926865,
2,0,2,0,,,,,1,0,1,0,23,0,23,0,,,,,,,,,,,,,,,,,,,,,,,,,,,,,,,,,,,,,,,,,,,,,,,,,Listen to the question and speak out your answer!,1942.6288509368896,None,1942.6115868091583,1944.6287388801575,Ihre Kinder liegen noch im Bett.,liegen,1944.0119709968567,1945.962189912796,1946.3454239368439,None,1959.2127459049225,1960.229497909546,1960.629508972168,None,./data/Subject_10/Session_01/Exp_data/2020_Aug_06_1242/rec_QA_run_02_block_001_trial_023.wav,,,,10,01,English,A2,True,False,True,False,False,True,True,True,True,True,True,True,No,2,No,No,No,No,2020_Aug_06_1242,nibs_stage_1,3.2.3,60.0247007926865,
2,0,2,0,,,,,1,0,1,0,24,0,24,0,,,,,,,,,,,,,,,,,,,,,,,,,,,,,,,,,,,,,,,,,,,,,,,,,Listen to the question and speak out your answer!,1963.6964509487152,None,1963.6626558303833,1965.6964449882507,"Habt ihr eine Ahnung, wie der Unfall passiert ist?",passiert,1965.0797228813171,1968.1632130146027,1968.5465018749237,None,1980.2806928157806,1981.2972209453583,1981.6972670555115,None,./data/Subject_10/Session_01/Exp_data/2020_Aug_06_1242/rec_QA_run_02_block_001_trial_024.wav,,,,10,01,English,A2,True,False,True,False,False,True,True,True,True,True,True,True,No,2,No,No,No,No,2020_Aug_06_1242,nibs_stage_1,3.2.3,60.0247007926865,
2,0,2,0,,,,,1,0,1,0,,,,,,,,,,,,,,,,,,,,,,,,,,,,,,,,,,,,,,,,,,1985.7141489982605,None,,,,,,,,,,,,,,,,,,,,,,,,,,,,,10,01,English,A2,True,False,True,False,False,True,True,True,True,True,True,True,No,2,No,No,No,No,2020_Aug_06_1242,nibs_stage_1,3.2.3,60.0247007926865,
2,0,2,0,,,,,,,,,,,,,,,,,,,,,,,,,,,,,,,,,,,,,,,,,,,,,,,,,,,,,,,,,,,,,,,,,,,,,,,,,,,,,Please remain seated until further instruction via the earphone.,55.297247886657715,None,10,01,English,A2,True,False,True,False,False,True,True,True,True,True,True,True,No,2,No,No,No,No,2020_Aug_06_1242,nibs_stage_1,3.2.3,60.0247007926865,
