run.thisRepN,run.thisTrialN,run.thisN,run.thisIndex,artifact_trial.thisRepN,artifact_trial.thisTrialN,artifact_trial.thisN,artifact_trial.thisIndex,QA_block.thisRepN,QA_block.thisTrialN,QA_block.thisN,QA_block.thisIndex,QA_trial.thisRepN,QA_trial.thisTrialN,QA_trial.thisN,QA_trial.thisIndex,fade_in_text.text,fade_in_text.started,fade_in_text.stopped,Artifact_intro_title.started,Artifact_intro_title.stopped,Artifact_intro_text.text,Artifact_intro_text.started,Artifact_intro_text.stopped,Artifact_intro_audio.started,Artifact_intro_audio.stopped,Artifact_intro_cont.started,Artifact_intro_cont.stopped,Artifact_rec_text.text,Artifact_rec_text.started,Artifact_rec_text.stopped,Artifact_rec_beep_hint.started,Artifact_rec_beep_hint.stopped,Artifact_rec_action.started,Artifact_rec_action.stopped,Artifact_rec_beep_start.started,Artifact_rec_beep_start.stopped,Artifact_rec_recording.started,Artifact_rec_recording.stopped,Artifact_rec_beep_end.started,Artifact_rec_beep_end.stopped,Artifact_rec_break.started,Artifact_rec_break.stopped,RS_intro_title.started,RS_intro_title.stopped,RS_intro_text.text,RS_intro_text.started,RS_intro_text.stopped,RS_intro_audio.started,RS_intro_audio.stopped,RS_rec_text.text,RS_rec_text.started,RS_rec_text.stopped,Pause_cont.started,Pause_cont.stopped,QA_intro_title.started,QA_intro_title.stopped,QA_intro_text.text,QA_intro_text.started,QA_intro_text.stopped,QA_intro_audio.started,QA_intro_audio.stopped,QA_intro_cont.started,QA_intro_cont.stopped,QA_rec_text.text,QA_rec_text.started,QA_rec_text.stopped,QA_rec_beep_hint.started,QA_rec_beep_hint.stopped,QA_rec_question.sen_text,QA_rec_question.cen_text,QA_rec_question.started,QA_rec_question.stopped,QA_rec_beep_start.started,QA_rec_beep_start.stopped,QA_rec_beep_end.started,QA_rec_beep_end.stopped,QA_rec_break.started,QA_rec_break.stopped,filename,fade_out_text.text,fade_out_text.started,fade_out_text.stopped,participant,session,First language,German level,Full_screen,Instruction,Intro,Artifact,Cali_pre,Fade_in_out,Artifact_within,Resting_State,QA,Pause,Cali_post,End,Breakpoint_Cali_pre_trial,Breakpoint_Run,Breakpoint_RS_block,Breakpoint_QA_block,Breakpoint_QA_trial,Breakpoint_Cali_post_trial,date,expName,psychopyVersion,frameRate,
2,0,2,0,0,0,0,0,,,,,,,,,Please remain seated until further instruction via the earphone.,63.19684410095215,None,65.23035311698914,92.24847602844238,"  - Task: Artifacts collection   
  - Please follow audio instruction              
",65.23035311698914,92.24847602844238,65.21226835250854,None,91.61497712135315,None,,95.51534295082092,None,95.49718427658081,97.49884796142578,96.88231039047241,None,100.28230142593384,None,101.68236446380615,111.68312501907349,112.08302044868469,None,113.48304104804993,114.4830961227417,,,,,,,,,,,,,,,,,,,,,,,,,,,,,,,,,,,,,,,,,08,03,English,A2,True,False,True,False,False,True,True,True,True,True,True,True,No,2,No,No,No,No,2020_Aug_07_1202,nibs_stage_1,3.2.3,60.05142801509624,
2,0,2,0,1,0,1,0,,,,,,,,,,,,,,,,,,,,,,117.5332670211792,None,117.51511931419373,119.51657104492188,118.90004849433899,None,122.30016040802002,None,123.7002944946289,133.70080709457397,134.10076355934143,None,135.50085401535034,136.50090098381042,,,,,,,,,,,,,,,,,,,,,,,,,,,,,,,,,,,,,,,,,08,03,English,A2,True,False,True,False,False,True,True,True,True,True,True,True,No,2,No,No,No,No,2020_Aug_07_1202,nibs_stage_1,3.2.3,60.05142801509624,
2,0,2,0,2,0,2,0,,,,,,,,,,,,,,,,,,,,,,139.5510289669037,None,139.53304028511047,141.53448009490967,140.91774940490723,None,144.31824946403503,None,145.71811151504517,155.71848797798157,156.11899542808533,None,157.51865100860596,158.51870393753052,,,,,,,,,,,,,,,,,,,,,,,,,,,,,,,,,,,,,,,,,08,03,English,A2,True,False,True,False,False,True,True,True,True,True,True,True,No,2,No,No,No,No,2020_Aug_07_1202,nibs_stage_1,3.2.3,60.05142801509624,
2,0,2,0,3,0,3,0,,,,,,,,,,,,,,,,,,,,,,161.56906604766846,None,161.5508532524109,163.5523121356964,162.93559956550598,None,166.3358063697815,None,167.73589038848877,177.7362940311432,178.1364803314209,None,179.5364921092987,180.53654408454895,,,,,,,,,,,,,,,,,,,,,,,,,,,,,,,,,,,,,,,,,08,03,English,A2,True,False,True,False,False,True,True,True,True,True,True,True,No,2,No,No,No,No,2020_Aug_07_1202,nibs_stage_1,3.2.3,60.05142801509624,
2,0,2,0,4,0,4,0,,,,,,,,,,,,,,,,,,,,,,183.58689093589783,None,183.56873631477356,185.5701620578766,184.9534614086151,None,188.3538224697113,None,189.75364637374878,199.75418496131897,200.15420246124268,None,201.5542950630188,202.55437302589417,,,,,,,,,,,,,,,,,,,,,,,,,,,,,,,,,,,,,,,,,08,03,English,A2,True,False,True,False,False,True,True,True,True,True,True,True,No,2,No,No,No,No,2020_Aug_07_1202,nibs_stage_1,3.2.3,60.05142801509624,
2,0,2,0,5,0,5,0,,,,,,,,,,,,,,,,,,,,,,205.60444903373718,None,205.5864462852478,207.5879421234131,206.97148036956787,None,210.3715615272522,None,211.7714924812317,221.77201104164124,222.1719753742218,223.17210912704468,223.5721390247345,224.57225799560547,,,,,,,,,,,,,,,,,,,,,,,,,,,,,,,,,,,,,,,,,08,03,English,A2,True,False,True,False,False,True,True,True,True,True,True,True,No,2,No,No,No,No,2020_Aug_07_1202,nibs_stage_1,3.2.3,60.05142801509624,
2,0,2,0,6,0,6,0,,,,,,,,,,,,,,,,,,,,,,227.6222641468048,None,227.6043472290039,229.60578107833862,228.9892394542694,None,232.38943552970886,None,233.78931140899658,243.78977704048157,244.18985652923584,None,245.5902819633484,246.59042406082153,,,,,,,,,,,,,,,,,,,,,,,,,,,,,,,,,,,,,,,,,08,03,English,A2,True,False,True,False,False,True,True,True,True,True,True,True,No,2,No,No,No,No,2020_Aug_07_1202,nibs_stage_1,3.2.3,60.05142801509624,
2,0,2,0,7,0,7,0,,,,,,,,,,,,,,,,,,,,,,249.6399700641632,None,249.62214732170105,251.62366199493408,251.0071074962616,254.00724697113037,254.40705251693726,None,255.80713534355164,265.8076400756836,266.2077775001526,None,267.6079089641571,268.6077470779419,,,,,,,,,,,,,,,,,,,,,,,,,,,,,,,,,,,,,,,,,08,03,English,A2,True,False,True,False,False,True,True,True,True,True,True,True,No,2,No,No,No,No,2020_Aug_07_1202,nibs_stage_1,3.2.3,60.05142801509624,
2,0,2,0,8,0,8,0,,,,,,,,,,,,,,,,,,,,,,271.6577560901642,None,271.63973927497864,273.65835905075073,273.0244164466858,276.0251410007477,276.4248764514923,None,277.8250424861908,287.8258590698242,288.22587847709656,None,289.625853061676,290.62532901763916,,,,,,,,,,,,,,,,,,,,,,,,,,,,,,,,,,,,,,,,,08,03,English,A2,True,False,True,False,False,True,True,True,True,True,True,True,No,2,No,No,No,No,2020_Aug_07_1202,nibs_stage_1,3.2.3,60.05142801509624,
2,0,2,0,9,0,9,0,,,,,,,,,,,,,,,,,,,,,,293.67570900917053,None,293.65756034851074,295.6590361595154,295.04227447509766,298.05939412117004,298.44248056411743,None,299.85947942733765,309.8598430156708,310.24309849739075,311.24317693710327,311.6432650089264,312.6434381008148,,,,,,,,,,,,,,,,,,,,,,,,,,,,,,,,,,,,,,,,,08,03,English,A2,True,False,True,False,False,True,True,True,True,True,True,True,No,2,No,No,No,No,2020_Aug_07_1202,nibs_stage_1,3.2.3,60.05142801509624,
2,0,2,0,10,0,10,0,,,,,,,,,,,,,,,,,,,,,,315.6937460899353,None,315.6754593849182,317.6768250465393,317.06026339530945,None,320.4603283405304,None,321.86038041114807,331.86104106903076,332.26094341278076,333.26084303855896,333.6610310077667,334.6610779762268,,,,,,,,,,,,,,,,,,,,,,,,,,,,,,,,,,,,,,,,,08,03,English,A2,True,False,True,False,False,True,True,True,True,True,True,True,No,2,No,No,No,No,2020_Aug_07_1202,nibs_stage_1,3.2.3,60.05142801509624,
2,0,2,0,11,0,11,0,,,,,,,,,,,,,,,,,,,,,,337.7112030982971,None,337.6932044029236,339.69464206695557,339.0780625343323,None,342.4783444404602,None,343.87830233573914,353.87878799438477,354.2787923812866,None,355.6788980960846,356.67887115478516,,,,,,,,,,,,,,,,,,,,,,,,,,,,,,,,,,,,,,,,,08,03,English,A2,True,False,True,False,False,True,True,True,True,True,True,True,No,2,No,No,No,No,2020_Aug_07_1202,nibs_stage_1,3.2.3,60.05142801509624,
2,0,2,0,12,0,12,0,,,,,,,,,,,,,,,,,,,,,,359.7289559841156,None,359.7110843658447,361.7124900817871,361.09594535827637,364.09636306762695,364.4961893558502,None,365.89627146720886,375.8970379829407,376.297075510025,377.2969169616699,377.6969039440155,378.6969680786133,,,,,,,,,,,,,,,,,,,,,,,,,,,,,,,,,,,,,,,,,08,03,English,A2,True,False,True,False,False,True,True,True,True,True,True,True,No,2,No,No,No,No,2020_Aug_07_1202,nibs_stage_1,3.2.3,60.05142801509624,
2,0,2,0,13,0,13,0,,,,,,,,,,,,,,,,,,,,,,381.7471580505371,None,381.72911620140076,383.73057413101196,383.1138503551483,None,386.5140714645386,None,387.9142553806305,397.9315149784088,398.3146803379059,399.314847946167,399.7146761417389,400.7147979736328,,,,,,,,,,,,,,,,,,,,,,,,,,,,,,,,,,,,,,,,,08,03,English,A2,True,False,True,False,False,True,True,True,True,True,True,True,No,2,No,No,No,No,2020_Aug_07_1202,nibs_stage_1,3.2.3,60.05142801509624,
2,0,2,0,14,0,14,0,,,,,,,,,,,,,,,,,,,,,,403.7652750015259,None,403.746883392334,405.7483389377594,405.131635427475,None,408.53181052207947,None,409.9318163394928,419.93240308761597,420.3324224948883,421.33247208595276,421.7325191497803,422.7326121330261,,,,,,,,,,,,,,,,,,,,,,,,,,,,,,,,,,,,,,,,,08,03,English,A2,True,False,True,False,False,True,True,True,True,True,True,True,No,2,No,No,No,No,2020_Aug_07_1202,nibs_stage_1,3.2.3,60.05142801509624,
2,0,2,0,,,,,0,0,0,0,0,0,0,0,,,,,,,,,,,,,,,,,,,,,,,,,,,,633.2100560665131,None," - Task: Keep seated and relaxed with either      
             opening or closing eyes                  
 - Beep sound with decreasing pitch: Block finish 
",633.2100560665131,None,633.1920156478882,None,"Please keep relaxed and close your eyes.
",656.2446870803833,836.2542860507965,839.6045939922333,None,861.7221851348877,901.757493019104," - Task: Listen to the question& Speak out answer 
 - Melodious beep sound: Trial start              
 - Silent sound (blank): censored word            
 - Beep sound with increasing pitch: Rec. start   
 - Beep sound with decreasing pitch: Rec. finish  
",861.7221851348877,901.757493019104,861.7034113407135,None,901.1407840251923,None,Listen to the question and speak out your answer!,907.2244141101837,None,907.2058501243591,909.2246401309967,Meine dicke Katze muss abnehmen.,abnehmen,908.6078245639801,None,910.9412825107574,None,923.8087394237518,None,925.2254540920258,None,./data/Subject_08/Session_03/Exp_data/2020_Aug_07_1202/rec_QA_run_02_block_000_trial_000.wav,,,,08,03,English,A2,True,False,True,False,False,True,True,True,True,True,True,True,No,2,No,No,No,No,2020_Aug_07_1202,nibs_stage_1,3.2.3,60.05142801509624,
2,0,2,0,,,,,0,0,0,0,1,0,1,0,,,,,,,,,,,,,,,,,,,,,,,,,,,,,,,,,,,,,,,,,,,,,,,,,Listen to the question and speak out your answer!,928.292839050293,None,928.2742791175842,930.2923879623413,Diese Telefinnummer ist leicht zu merken.,merken,929.6757724285126,932.2591540813446,932.6425075531006,933.6592221260071,944.8764455318451,None,946.293270111084,None,./data/Subject_08/Session_03/Exp_data/2020_Aug_07_1202/rec_QA_run_02_block_000_trial_001.wav,,,,08,03,English,A2,True,False,True,False,False,True,True,True,True,True,True,True,No,2,No,No,No,No,2020_Aug_07_1202,nibs_stage_1,3.2.3,60.05142801509624,
2,0,2,0,,,,,0,0,0,0,2,0,2,0,,,,,,,,,,,,,,,,,,,,,,,,,,,,,,,,,,,,,,,,,,,,,,,,,Listen to the question and speak out your answer!,949.3267390727997,None,949.3086411952972,951.3267550468445,"Ich kann dir gerne mein Fahrrad leihen, wenn du möchtest.",leihen,950.7100343704224,953.7935211658478,954.1768765449524,955.1937301158905,965.8941693305969,None,967.310907125473,None,./data/Subject_08/Session_03/Exp_data/2020_Aug_07_1202/rec_QA_run_02_block_000_trial_002.wav,,,,08,03,English,A2,True,False,True,False,False,True,True,True,True,True,True,True,No,2,No,No,No,No,2020_Aug_07_1202,nibs_stage_1,3.2.3,60.05142801509624,
2,0,2,0,,,,,0,0,0,0,3,0,3,0,,,,,,,,,,,,,,,,,,,,,,,,,,,,,,,,,,,,,,,,,,,,,,,,,Listen to the question and speak out your answer!,970.3784091472626,None,970.3430685997009,972.3778541088104,Halloween wurde schon von den Kelten gefeiert.,gefeiert,971.7611243724823,974.6116120815277,974.994645357132,None,986.9619333744049,None,988.3786749839783,None,./data/Subject_08/Session_03/Exp_data/2020_Aug_07_1202/rec_QA_run_02_block_000_trial_003.wav,,,,08,03,English,A2,True,False,True,False,False,True,True,True,True,True,True,True,No,2,No,No,No,No,2020_Aug_07_1202,nibs_stage_1,3.2.3,60.05142801509624,
2,0,2,0,,,,,0,0,0,0,4,0,4,0,,,,,,,,,,,,,,,,,,,,,,,,,,,,,,,,,,,,,,,,,,,,,,,,,Listen to the question and speak out your answer!,991.3961300849915,None,991.3774766921997,993.3955380916595,Er hat jahrzehntelang geraucht und seine Lunge schwer geschädigt.,geraucht,992.7789154052734,None,996.7791154384613,None,1007.9797103404999,None,1009.3965110778809,None,./data/Subject_08/Session_03/Exp_data/2020_Aug_07_1202/rec_QA_run_02_block_000_trial_004.wav,,,,08,03,English,A2,True,False,True,False,False,True,True,True,True,True,True,True,No,2,No,No,No,No,2020_Aug_07_1202,nibs_stage_1,3.2.3,60.05142801509624,
2,0,2,0,,,,,0,0,0,0,5,0,5,0,,,,,,,,,,,,,,,,,,,,,,,,,,,,,,,,,,,,,,,,,,,,,,,,,Listen to the question and speak out your answer!,1012.4636361598969,None,1012.445249080658,1014.4633901119232,"Wir brauchen Obst und Gemüse, also muss ich auf den Markt gehen.",gehen,1013.84668135643,None,1018.0135593414307,None,1029.047462463379,None,1030.4641721248627,None,./data/Subject_08/Session_03/Exp_data/2020_Aug_07_1202/rec_QA_run_02_block_000_trial_005.wav,,,,08,03,English,A2,True,False,True,False,False,True,True,True,True,True,True,True,No,2,No,No,No,No,2020_Aug_07_1202,nibs_stage_1,3.2.3,60.05142801509624,
2,0,2,0,,,,,0,0,0,0,6,0,6,0,,,,,,,,,,,,,,,,,,,,,,,,,,,,,,,,,,,,,,,,,,,,,,,,,Listen to the question and speak out your answer!,1033.5152809619904,None,1033.4963507652283,1035.514503955841,"Das Flugzeug steht kurz vor dem Abflug, wir müssen uns beeilen.",beeilen,1034.8977763652802,None,1039.198023557663,None,1050.098617553711,None,1051.5153350830078,None,./data/Subject_08/Session_03/Exp_data/2020_Aug_07_1202/rec_QA_run_02_block_000_trial_006.wav,,,,08,03,English,A2,True,False,True,False,False,True,True,True,True,True,True,True,No,2,No,No,No,No,2020_Aug_07_1202,nibs_stage_1,3.2.3,60.05142801509624,
2,0,2,0,,,,,0,0,0,0,7,0,7,0,,,,,,,,,,,,,,,,,,,,,,,,,,,,,,,,,,,,,,,,,,,,,,,,,Listen to the question and speak out your answer!,1054.5828051567078,None,1054.5474636554718,1056.5822579860687,Der Präsident diskutierte das Thema auf der Pressekonferenz nicht.,diskutierte,1055.9655895233154,None,1060.599137544632,None,1071.1663553714752,None,1072.583249092102,None,./data/Subject_08/Session_03/Exp_data/2020_Aug_07_1202/rec_QA_run_02_block_000_trial_007.wav,,,,08,03,English,A2,True,False,True,False,False,True,True,True,True,True,True,True,No,2,No,No,No,No,2020_Aug_07_1202,nibs_stage_1,3.2.3,60.05142801509624,
2,0,2,0,,,,,0,0,0,0,8,0,8,0,,,,,,,,,,,,,,,,,,,,,,,,,,,,,,,,,,,,,,,,,,,,,,,,,Listen to the question and speak out your answer!,1075.6182861328125,None,1075.5988512039185,1077.6172511577606,"Um eine Kreditkarte zu bewerben, muss man älter als 18 werden. ",bewerben,1076.9668345451355,None,1081.433557510376,None,1092.1677434444427,None,1093.5842039585114,None,./data/Subject_08/Session_03/Exp_data/2020_Aug_07_1202/rec_QA_run_02_block_000_trial_008.wav,,,,08,03,English,A2,True,False,True,False,False,True,True,True,True,True,True,True,No,2,No,No,No,No,2020_Aug_07_1202,nibs_stage_1,3.2.3,60.05142801509624,
2,0,2,0,,,,,0,0,0,0,9,0,9,0,,,,,,,,,,,,,,,,,,,,,,,,,,,,,,,,,,,,,,,,,,,,,,,,,Listen to the question and speak out your answer!,1096.6525840759277,None,1096.63299202919,1098.6511340141296,Afrika liegt südlich von Europa .,liegt,1098.034429550171,1100.6179180145264,1101.0013635158539,1102.0179891586304,1113.2352583408356,None,1114.6521830558777,None,./data/Subject_08/Session_03/Exp_data/2020_Aug_07_1202/rec_QA_run_02_block_000_trial_009.wav,,,,08,03,English,A2,True,False,True,False,False,True,True,True,True,True,True,True,No,2,No,No,No,No,2020_Aug_07_1202,nibs_stage_1,3.2.3,60.05142801509624,
2,0,2,0,,,,,0,0,0,0,10,0,10,0,,,,,,,,,,,,,,,,,,,,,,,,,,,,,,,,,,,,,,,,,,,,,,,,,Listen to the question and speak out your answer!,1117.7205419540405,None,1117.7007911205292,1119.718910932541,Er hängte seine Jacke über die Lehne des Stuhls.,hängte,1119.1022055149078,1122.0523941516876,1122.4357025623322,1123.4525821208954,1134.3030014038086,1135.3197309970856,1135.719799041748,None,./data/Subject_08/Session_03/Exp_data/2020_Aug_07_1202/rec_QA_run_02_block_000_trial_010.wav,,,,08,03,English,A2,True,False,True,False,False,True,True,True,True,True,True,True,No,2,No,No,No,No,2020_Aug_07_1202,nibs_stage_1,3.2.3,60.05142801509624,
2,0,2,0,,,,,0,0,0,0,11,0,11,0,,,,,,,,,,,,,,,,,,,,,,,,,,,,,,,,,,,,,,,,,,,,,,,,,Listen to the question and speak out your answer!,1138.7872121334076,None,1138.7519266605377,1140.7869729995728,Bitte nimm meinen Mantel mit in die Garderobe.,nimm,1140.169986486435,None,1143.236804485321,None,1155.3540885448456,None,1156.7708489894867,None,./data/Subject_08/Session_03/Exp_data/2020_Aug_07_1202/rec_QA_run_02_block_000_trial_011.wav,,,,08,03,English,A2,True,False,True,False,False,True,True,True,True,True,True,True,No,2,No,No,No,No,2020_Aug_07_1202,nibs_stage_1,3.2.3,60.05142801509624,
2,0,2,0,,,,,0,0,0,0,12,0,12,0,,,,,,,,,,,,,,,,,,,,,,,,,,,,,,,,,,,,,,,,,,,,,,,,,Listen to the question and speak out your answer!,1159.8383281230927,None,1159.803017616272,1161.837795972824,"Sie sollten mehr Obst essen, Vitamin C wird Ihnen bei Erkältungen helfen.",helfen,1161.187750339508,1165.837984085083,1166.2213244438171,1167.238060951233,1176.3886454105377,None,1177.8052880764008,None,./data/Subject_08/Session_03/Exp_data/2020_Aug_07_1202/rec_QA_run_02_block_000_trial_012.wav,,,,08,03,English,A2,True,False,True,False,False,True,True,True,True,True,True,True,No,2,No,No,No,No,2020_Aug_07_1202,nibs_stage_1,3.2.3,60.05142801509624,
2,0,2,0,,,,,0,0,0,0,13,0,13,0,,,,,,,,,,,,,,,,,,,,,,,,,,,,,,,,,,,,,,,,,,,,,,,,,Listen to the question and speak out your answer!,1180.8564839363098,None,1180.8375327587128,1182.8555581569672,Morgen werde ich eine Schularbeit schreiben.,schreiben,1182.238846540451,1184.7223200798035,1185.105580329895,None,1197.439656496048,1198.4563159942627,1198.8563351631165,None,./data/Subject_08/Session_03/Exp_data/2020_Aug_07_1202/rec_QA_run_02_block_000_trial_013.wav,,,,08,03,English,A2,True,False,True,False,False,True,True,True,True,True,True,True,No,2,No,No,No,No,2020_Aug_07_1202,nibs_stage_1,3.2.3,60.05142801509624,
2,0,2,0,,,,,0,0,0,0,14,0,14,0,,,,,,,,,,,,,,,,,,,,,,,,,,,,,,,,,,,,,,,,,,,,,,,,,Listen to the question and speak out your answer!,1201.9080979824066,None,1201.8885548114777,1203.9066500663757,Das Radio informiert Autofahrer über Staus.,informiert,1203.2898614406586,None,1206.8237314224243,None,1218.4907433986664,None,1219.9075119495392,None,./data/Subject_08/Session_03/Exp_data/2020_Aug_07_1202/rec_QA_run_02_block_000_trial_014.wav,,,,08,03,English,A2,True,False,True,False,False,True,True,True,True,True,True,True,No,2,No,No,No,No,2020_Aug_07_1202,nibs_stage_1,3.2.3,60.05142801509624,
2,0,2,0,,,,,0,0,0,0,15,0,15,0,,,,,,,,,,,,,,,,,,,,,,,,,,,,,,,,,,,,,,,,,,,,,,,,,Listen to the question and speak out your answer!,1222.9749331474304,None,1222.9396436214447,1224.9744310379028,Im Weltraum kann man keinen Ton hören.,hören,1224.32430934906,1226.7413229942322,1227.157856464386,None,1239.5251994132996,None,1240.9419400691986,None,./data/Subject_08/Session_03/Exp_data/2020_Aug_07_1202/rec_QA_run_02_block_000_trial_015.wav,,,,08,03,English,A2,True,False,True,False,False,True,True,True,True,True,True,True,No,2,No,No,No,No,2020_Aug_07_1202,nibs_stage_1,3.2.3,60.05142801509624,
2,0,2,0,,,,,0,0,0,0,16,0,16,0,,,,,,,,,,,,,,,,,,,,,,,,,,,,,,,,,,,,,,,,,,,,,,,,,Listen to the question and speak out your answer!,1244.0089030265808,None,1243.9907519817352,1246.008868932724,Können Sie mir auf Hundert Euro herausgeben?,herausgeben,1245.3588194847107,None,1248.4923515319824,None,1260.5596165657043,None,1261.9763951301575,None,./data/Subject_08/Session_03/Exp_data/2020_Aug_07_1202/rec_QA_run_02_block_000_trial_016.wav,,,,08,03,English,A2,True,False,True,False,False,True,True,True,True,True,True,True,No,2,No,No,No,No,2020_Aug_07_1202,nibs_stage_1,3.2.3,60.05142801509624,
2,0,2,0,,,,,0,0,0,0,17,0,17,0,,,,,,,,,,,,,,,,,,,,,,,,,,,,,,,,,,,,,,,,,,,,,,,,,Listen to the question and speak out your answer!,1265.0438599586487,None,1265.008675813675,1267.0432970523834,Der Verletzte braucht dringend einen Arzt zu besuchen.,besuchen,1266.3932723999023,1269.5103559494019,1269.893446445465,None,1281.5940544605255,None,1283.0108079910278,None,./data/Subject_08/Session_03/Exp_data/2020_Aug_07_1202/rec_QA_run_02_block_000_trial_017.wav,,,,08,03,English,A2,True,False,True,False,False,True,True,True,True,True,True,True,No,2,No,No,No,No,2020_Aug_07_1202,nibs_stage_1,3.2.3,60.05142801509624,
2,0,2,0,,,,,0,0,0,0,18,0,18,0,,,,,,,,,,,,,,,,,,,,,,,,,,,,,,,,,,,,,,,,,,,,,,,,,Listen to the question and speak out your answer!,1286.0782499313354,None,1286.0429496765137,1288.0777461528778,"Entschuldigung, können Sie mir ein Taxi rufen?",rufen,1287.4610164165497,1290.2445731163025,1290.627854347229,None,1302.6618463993073,None,1304.0785760879517,None,./data/Subject_08/Session_03/Exp_data/2020_Aug_07_1202/rec_QA_run_02_block_000_trial_018.wav,,,,08,03,English,A2,True,False,True,False,False,True,True,True,True,True,True,True,No,2,No,No,No,No,2020_Aug_07_1202,nibs_stage_1,3.2.3,60.05142801509624,
2,0,2,0,,,,,0,0,0,0,19,0,19,0,,,,,,,,,,,,,,,,,,,,,,,,,,,,,,,,,,,,,,,,,,,,,,,,,Listen to the question and speak out your answer!,1307.1130051612854,None,1307.0940279960632,1309.1121799945831,"Wie schmeckt Iris die Melone, die ich im Geschäft gekauft habe?",schmeckt,1308.4954705238342,None,1312.762368440628,None,1323.6962554454803,1324.7130329608917,1325.113028049469,None,./data/Subject_08/Session_03/Exp_data/2020_Aug_07_1202/rec_QA_run_02_block_000_trial_019.wav,,,,08,03,English,A2,True,False,True,False,False,True,True,True,True,True,True,True,No,2,No,No,No,No,2020_Aug_07_1202,nibs_stage_1,3.2.3,60.05142801509624,
2,0,2,0,,,,,0,0,0,0,20,0,20,0,,,,,,,,,,,,,,,,,,,,,,,,,,,,,,,,,,,,,,,,,,,,,,,,,Listen to the question and speak out your answer!,1328.1634831428528,None,1328.1451666355133,1330.1632809638977,"Ausländische Studenten, die wenig Geld haben, brauchen ein Stipendium.",brauchen,1329.5465714931488,1334.0302460193634,1334.3801383972168,1335.396896123886,1344.7473623752594,None,1346.1641070842743,None,./data/Subject_08/Session_03/Exp_data/2020_Aug_07_1202/rec_QA_run_02_block_000_trial_020.wav,,,,08,03,English,A2,True,False,True,False,False,True,True,True,True,True,True,True,No,2,No,No,No,No,2020_Aug_07_1202,nibs_stage_1,3.2.3,60.05142801509624,
2,0,2,0,,,,,0,0,0,0,21,0,21,0,,,,,,,,,,,,,,,,,,,,,,,,,,,,,,,,,,,,,,,,,,,,,,,,,Listen to the question and speak out your answer!,1349.1985199451447,None,1349.1795890331268,1351.1976311206818,Können Sie die Kleidung des Täters beschreiben?,beschreiben,1350.5811014175415,None,1353.44792842865,None,1365.7817873954773,1366.798560142517,1367.1985490322113,None,./data/Subject_08/Session_03/Exp_data/2020_Aug_07_1202/rec_QA_run_02_block_000_trial_021.wav,,,,08,03,English,A2,True,False,True,False,False,True,True,True,True,True,True,True,No,2,No,No,No,No,2020_Aug_07_1202,nibs_stage_1,3.2.3,60.05142801509624,
2,0,2,0,,,,,0,0,0,0,22,0,22,0,,,,,,,,,,,,,,,,,,,,,,,,,,,,,,,,,,,,,,,,,,,,,,,,,Listen to the question and speak out your answer!,1370.2325699329376,None,1370.2141420841217,1372.2321510314941,"Damit Pflanzen gut wachsen, müssen wir sie mehr Wasser gießen.",gießen,1371.6155474185944,None,1375.5822994709015,1376.5990419387817,1386.8162405490875,None,1388.2330090999603,None,./data/Subject_08/Session_03/Exp_data/2020_Aug_07_1202/rec_QA_run_02_block_000_trial_022.wav,,,,08,03,English,A2,True,False,True,False,False,True,True,True,True,True,True,True,No,2,No,No,No,No,2020_Aug_07_1202,nibs_stage_1,3.2.3,60.05142801509624,
2,0,2,0,,,,,0,0,0,0,23,0,23,0,,,,,,,,,,,,,,,,,,,,,,,,,,,,,,,,,,,,,,,,,,,,,,,,,Listen to the question and speak out your answer!,1391.2670359611511,None,1391.2318046092987,1393.2666039466858,"Wenn man seine Zähne putzt, muss er die Zahnpasta auf Zahnbürste pressen.",putzt,1392.6499273777008,1396.9667840003967,1397.3501343727112,1398.3668279647827,1407.8173434734344,None,1409.234090089798,None,./data/Subject_08/Session_03/Exp_data/2020_Aug_07_1202/rec_QA_run_02_block_000_trial_023.wav,,,,08,03,English,A2,True,False,True,False,False,True,True,True,True,True,True,True,No,2,No,No,No,No,2020_Aug_07_1202,nibs_stage_1,3.2.3,60.05142801509624,
2,0,2,0,,,,,0,0,0,0,24,0,24,0,,,,,,,,,,,,,,,,,,,,,,,,,,,,,,,,,,,,,,,,,,,,,,,,,Listen to the question and speak out your answer!,1412.3027031421661,None,1412.2828810214996,1414.3010280132294,Die Bergsteiger sind in die Wand eingestiegen.,eingestiegen,1413.6844413280487,None,1416.617707490921,None,1428.8852665424347,None,1430.3018789291382,None,./data/Subject_08/Session_03/Exp_data/2020_Aug_07_1202/rec_QA_run_02_block_000_trial_024.wav,,,,08,03,English,A2,True,False,True,False,False,True,True,True,True,True,True,True,No,2,No,No,No,No,2020_Aug_07_1202,nibs_stage_1,3.2.3,60.05142801509624,
2,0,2,0,,,,,0,0,0,0,,,,,,,,,,,,,,,,,,,,,,,,,,,,,,,,,,,,,,,,,,1434.3187601566315,None,,,,,,,,,,,,,,,,,,,,,,,,,,,,,08,03,English,A2,True,False,True,False,False,True,True,True,True,True,True,True,No,2,No,No,No,No,2020_Aug_07_1202,nibs_stage_1,3.2.3,60.05142801509624,
2,0,2,0,,,,,1,0,1,0,0,0,0,0,,,,,,,,,,,,,,,,,,,,,,,,,,,,,,,,,,,,,,,,,,,,,,,,,Listen to the question and speak out your answer!,1466.621083021164,None,1466.5851521492004,1468.6207389831543,"Ich habe keine Ahnung, wie viel du für das Auto gezahlt hast, aber lass mich mal raten.",raten,1468.0038285255432,None,1473.6041295528412,None,1483.2046995162964,None,1484.6213800907135,None,./data/Subject_08/Session_03/Exp_data/2020_Aug_07_1202/rec_QA_run_02_block_001_trial_000.wav,,,,08,03,English,A2,True,False,True,False,False,True,True,True,True,True,True,True,No,2,No,No,No,No,2020_Aug_07_1202,nibs_stage_1,3.2.3,60.05142801509624,
2,0,2,0,,,,,1,0,1,0,1,0,1,0,,,,,,,,,,,,,,,,,,,,,,,,,,,,,,,,,,,,,,,,,,,,,,,,,Listen to the question and speak out your answer!,1487.6554961204529,None,1487.6201887130737,1489.6549971103668,Die Polizei sammelte alle verfügbaren Informationen.,sammelte,1489.0382623672485,1492.7551529407501,1493.105355501175,None,1504.2391624450684,None,1505.6561710834503,None,./data/Subject_08/Session_03/Exp_data/2020_Aug_07_1202/rec_QA_run_02_block_001_trial_001.wav,,,,08,03,English,A2,True,False,True,False,False,True,True,True,True,True,True,True,No,2,No,No,No,No,2020_Aug_07_1202,nibs_stage_1,3.2.3,60.05142801509624,
2,0,2,0,,,,,1,0,1,0,2,0,2,0,,,,,,,,,,,,,,,,,,,,,,,,,,,,,,,,,,,,,,,,,,,,,,,,,Listen to the question and speak out your answer!,1508.6893820762634,None,1508.6713061332703,1510.6893520355225,Jetzt liest er seiner Mutter eine Geschichte vor.,liest,1510.0727095603943,None,1513.2395415306091,1514.256283044815,1525.240157365799,None,1526.6569149494171,None,./data/Subject_08/Session_03/Exp_data/2020_Aug_07_1202/rec_QA_run_02_block_001_trial_002.wav,,,,08,03,English,A2,True,False,True,False,False,True,True,True,True,True,True,True,No,2,No,No,No,No,2020_Aug_07_1202,nibs_stage_1,3.2.3,60.05142801509624,
2,0,2,0,,,,,1,0,1,0,3,0,3,0,,,,,,,,,,,,,,,,,,,,,,,,,,,,,,,,,,,,,,,,,,,,,,,,,Listen to the question and speak out your answer!,1529.7237949371338,None,1529.6889927387238,1531.7238850593567,Wo werden Sie Urlaub machen?,machen,1531.1071054935455,None,1533.173924446106,None,1546.307926416397,None,1547.7247030735016,None,./data/Subject_08/Session_03/Exp_data/2020_Aug_07_1202/rec_QA_run_02_block_001_trial_003.wav,,,,08,03,English,A2,True,False,True,False,False,True,True,True,True,True,True,True,No,2,No,No,No,No,2020_Aug_07_1202,nibs_stage_1,3.2.3,60.05142801509624,
2,0,2,0,,,,,1,0,1,0,4,0,4,0,,,,,,,,,,,,,,,,,,,,,,,,,,,,,,,,,,,,,,,,,,,,,,,,,Listen to the question and speak out your answer!,1550.7588140964508,None,1550.723495721817,1552.7582831382751,Abends essen wir meistens kalt.,essen,1552.1415753364563,1554.1583750247955,1554.5416893959045,None,1567.3256833553314,None,1568.74245595932,None,./data/Subject_08/Session_03/Exp_data/2020_Aug_07_1202/rec_QA_run_02_block_001_trial_004.wav,,,,08,03,English,A2,True,False,True,False,False,True,True,True,True,True,True,True,No,2,No,No,No,No,2020_Aug_07_1202,nibs_stage_1,3.2.3,60.05142801509624,
2,0,2,0,,,,,1,0,1,0,5,0,5,0,,,,,,,,,,,,,,,,,,,,,,,,,,,,,,,,,,,,,,,,,,,,,,,,,Listen to the question and speak out your answer!,1571.810217142105,None,1571.791249036789,1573.8093140125275,Kannst du bitte die Wäsche in die Sonne hängen?,hängen,1573.1593585014343,1575.576157093048,1575.9928324222565,None,1588.36012840271,None,1589.7768931388855,None,./data/Subject_08/Session_03/Exp_data/2020_Aug_07_1202/rec_QA_run_02_block_001_trial_005.wav,,,,08,03,English,A2,True,False,True,False,False,True,True,True,True,True,True,True,No,2,No,No,No,No,2020_Aug_07_1202,nibs_stage_1,3.2.3,60.05142801509624,
2,0,2,0,,,,,1,0,1,0,6,0,6,0,,,,,,,,,,,,,,,,,,,,,,,,,,,,,,,,,,,,,,,,,,,,,,,,,Listen to the question and speak out your answer!,1592.8440539836884,None,1592.8257021903992,1594.8438630104065,"Eric ist ein guter Fahrer, obwohl er gerade erst seinen Führerschein gemacht hat.",gemacht,1594.1937985420227,1599.0773949623108,1599.4940605163574,1600.5107951164246,1609.39457654953,1610.4114091396332,1610.8113520145416,None,./data/Subject_08/Session_03/Exp_data/2020_Aug_07_1202/rec_QA_run_02_block_001_trial_006.wav,,,,08,03,English,A2,True,False,True,False,False,True,True,True,True,True,True,True,No,2,No,No,No,No,2020_Aug_07_1202,nibs_stage_1,3.2.3,60.05142801509624,
2,0,2,0,,,,,1,0,1,0,7,0,7,0,,,,,,,,,,,,,,,,,,,,,,,,,,,,,,,,,,,,,,,,,,,,,,,,,Listen to the question and speak out your answer!,1613.879096031189,None,1613.8601121902466,1615.8782579898834,Der Junge hat das Mädchen zum Kaffee eingeladen.,eingeladen,1615.2615404129028,None,1618.5285835266113,1619.5451109409332,1630.4626984596252,None,1631.879212141037,None,./data/Subject_08/Session_03/Exp_data/2020_Aug_07_1202/rec_QA_run_02_block_001_trial_007.wav,,,,08,03,English,A2,True,False,True,False,False,True,True,True,True,True,True,True,No,2,No,No,No,No,2020_Aug_07_1202,nibs_stage_1,3.2.3,60.05142801509624,
2,0,2,0,,,,,1,0,1,0,8,0,8,0,,,,,,,,,,,,,,,,,,,,,,,,,,,,,,,,,,,,,,,,,,,,,,,,,Listen to the question and speak out your answer!,1634.8965830802917,None,1634.8612432479858,1636.8960421085358,"Um den Sachverhalt zu erklären, fehlten ihm die treffenden Vokabeln.",erklären,1636.2795984745026,1640.4962301254272,1640.8462524414062,None,1651.4801313877106,None,1652.8968629837036,None,./data/Subject_08/Session_03/Exp_data/2020_Aug_07_1202/rec_QA_run_02_block_001_trial_008.wav,,,,08,03,English,A2,True,False,True,False,False,True,True,True,True,True,True,True,No,2,No,No,No,No,2020_Aug_07_1202,nibs_stage_1,3.2.3,60.05142801509624,
2,0,2,0,,,,,1,0,1,0,9,0,9,0,,,,,,,,,,,,,,,,,,,,,,,,,,,,,,,,,,,,,,,,,,,,,,,,,Listen to the question and speak out your answer!,1655.931900024414,None,1655.9123811721802,1657.930475950241,Alle Wege führen nach Rom.,führen,1657.3137884140015,1659.297208070755,1659.6805493831635,None,1672.5145754814148,None,1673.93137216568,None,./data/Subject_08/Session_03/Exp_data/2020_Aug_07_1202/rec_QA_run_02_block_001_trial_009.wav,,,,08,03,English,A2,True,False,True,False,False,True,True,True,True,True,True,True,No,2,No,No,No,No,2020_Aug_07_1202,nibs_stage_1,3.2.3,60.05142801509624,
2,0,2,0,,,,,1,0,1,0,10,0,10,0,,,,,,,,,,,,,,,,,,,,,,,,,,,,,,,,,,,,,,,,,,,,,,,,,Listen to the question and speak out your answer!,1676.9987680912018,None,1676.9800961017609,1678.9982371330261,Der Arbeiter repariert eine Panne.,repariert,1678.3815405368805,1680.6983170509338,1681.0818483829498,None,1693.582323551178,None,1694.9990990161896,None,./data/Subject_08/Session_03/Exp_data/2020_Aug_07_1202/rec_QA_run_02_block_001_trial_010.wav,,,,08,03,English,A2,True,False,True,False,False,True,True,True,True,True,True,True,No,2,No,No,No,No,2020_Aug_07_1202,nibs_stage_1,3.2.3,60.05142801509624,
2,0,2,0,,,,,1,0,1,0,11,0,11,0,,,,,,,,,,,,,,,,,,,,,,,,,,,,,,,,,,,,,,,,,,,,,,,,,Listen to the question and speak out your answer!,1698.0334601402283,None,1698.0145230293274,1700.03280711174,Das Fleisch wurde über dem offenen Feuer gegrillt.,gegrillt,1699.4159724712372,None,1702.7828023433685,None,1714.6167695522308,1715.633502960205,1716.0335171222687,None,./data/Subject_08/Session_03/Exp_data/2020_Aug_07_1202/rec_QA_run_02_block_001_trial_011.wav,,,,08,03,English,A2,True,False,True,False,False,True,True,True,True,True,True,True,No,2,No,No,No,No,2020_Aug_07_1202,nibs_stage_1,3.2.3,60.05142801509624,
2,0,2,0,,,,,1,0,1,0,12,0,12,0,,,,,,,,,,,,,,,,,,,,,,,,,,,,,,,,,,,,,,,,,,,,,,,,,Listen to the question and speak out your answer!,1719.1024460792542,None,1719.0823180675507,1721.100485086441,Unter solchen Bedingungen kann man den Umfang des Kreises leicht berechnen.,berechnen,1720.4838573932648,1724.600651025772,1724.9840943813324,None,1735.6845433712006,1736.701261997223,1737.1012971401215,None,./data/Subject_08/Session_03/Exp_data/2020_Aug_07_1202/rec_QA_run_02_block_001_trial_012.wav,,,,08,03,English,A2,True,False,True,False,False,True,True,True,True,True,True,True,No,2,No,No,No,No,2020_Aug_07_1202,nibs_stage_1,3.2.3,60.05142801509624,
2,0,2,0,,,,,1,0,1,0,13,0,13,0,,,,,,,,,,,,,,,,,,,,,,,,,,,,,,,,,,,,,,,,,,,,,,,,,Listen to the question and speak out your answer!,1740.1353311538696,None,1740.1000807285309,1742.134891986847,Das Schloss liegt innerhalb der Stadtmauern.,liegt,1741.5181744098663,1743.9349911212921,1744.3182353973389,1745.3350501060486,1756.718992471695,None,1758.1357929706573,None,./data/Subject_08/Session_03/Exp_data/2020_Aug_07_1202/rec_QA_run_02_block_001_trial_013.wav,,,,08,03,English,A2,True,False,True,False,False,True,True,True,True,True,True,True,No,2,No,No,No,No,2020_Aug_07_1202,nibs_stage_1,3.2.3,60.05142801509624,
2,0,2,0,,,,,1,0,1,0,14,0,14,0,,,,,,,,,,,,,,,,,,,,,,,,,,,,,,,,,,,,,,,,,,,,,,,,,Listen to the question and speak out your answer!,1761.1704750061035,None,1761.1513211727142,1763.169322013855,Sie hat das Gemüse in Olivenöl gebraten.,gebraten,1762.552704334259,1765.336102962494,1765.7197074890137,1766.736319065094,1777.7534034252167,1778.7700610160828,1779.170158147812,None,./data/Subject_08/Session_03/Exp_data/2020_Aug_07_1202/rec_QA_run_02_block_001_trial_014.wav,,,,08,03,English,A2,True,False,True,False,False,True,True,True,True,True,True,True,No,2,No,No,No,No,2020_Aug_07_1202,nibs_stage_1,3.2.3,60.05142801509624,
2,0,2,0,,,,,1,0,1,0,15,0,15,0,,,,,,,,,,,,,,,,,,,,,,,,,,,,,,,,,,,,,,,,,,,,,,,,,Listen to the question and speak out your answer!,1782.237643957138,None,1782.202350616455,1784.2370750904083,Meine Oma hat mir Frühstück gekocht.,gekocht,1783.5870554447174,None,1786.2205274105072,1787.2375321388245,1798.787974357605,None,1800.204591035843,None,./data/Subject_08/Session_03/Exp_data/2020_Aug_07_1202/rec_QA_run_02_block_001_trial_015.wav,,,,08,03,English,A2,True,False,True,False,False,True,True,True,True,True,True,True,No,2,No,No,No,No,2020_Aug_07_1202,nibs_stage_1,3.2.3,60.05142801509624,
2,0,2,0,,,,,1,0,1,0,16,0,16,0,,,,,,,,,,,,,,,,,,,,,,,,,,,,,,,,,,,,,,,,,,,,,,,,,Listen to the question and speak out your answer!,1803.2723319530487,None,1803.2534170150757,1805.2715239524841,Um Mitternacht schließt das Lokal.,schließt,1804.6548254489899,None,1807.1883194446564,1808.2050170898438,1819.855709552765,None,1821.2723841667175,None,./data/Subject_08/Session_03/Exp_data/2020_Aug_07_1202/rec_QA_run_02_block_001_trial_016.wav,,,,08,03,English,A2,True,False,True,False,False,True,True,True,True,True,True,True,No,2,No,No,No,No,2020_Aug_07_1202,nibs_stage_1,3.2.3,60.05142801509624,
2,0,2,0,,,,,1,0,1,0,17,0,17,0,,,,,,,,,,,,,,,,,,,,,,,,,,,,,,,,,,,,,,,,,,,,,,,,,Listen to the question and speak out your answer!,1824.3064661026,None,1824.2711727619171,1826.306039094925,Die Sonne brennt im Sommer auf der Haut.,brennt,1825.689246416092,None,1828.3559794425964,1829.3727929592133,1840.8903393745422,1841.9067950248718,1842.3068101406097,None,./data/Subject_08/Session_03/Exp_data/2020_Aug_07_1202/rec_QA_run_02_block_001_trial_017.wav,,,,08,03,English,A2,True,False,True,False,False,True,True,True,True,True,True,True,No,2,No,No,No,No,2020_Aug_07_1202,nibs_stage_1,3.2.3,60.05142801509624,
2,0,2,0,,,,,1,0,1,0,18,0,18,0,,,,,,,,,,,,,,,,,,,,,,,,,,,,,,,,,,,,,,,,,,,,,,,,,Listen to the question and speak out your answer!,1845.3570699691772,None,1845.3222630023956,1847.3577649593353,Bitte gib mir ein Stück Kuchen und eine Schale mit Obst.,gib,1846.707028388977,1850.0907130241394,1850.5072214603424,None,1861.9078164100647,1862.9244639873505,1863.32457113266,None,./data/Subject_08/Session_03/Exp_data/2020_Aug_07_1202/rec_QA_run_02_block_001_trial_018.wav,,,,08,03,English,A2,True,False,True,False,False,True,True,True,True,True,True,True,No,2,No,No,No,No,2020_Aug_07_1202,nibs_stage_1,3.2.3,60.05142801509624,
2,0,2,0,,,,,1,0,1,0,19,0,19,0,,,,,,,,,,,,,,,,,,,,,,,,,,,,,,,,,,,,,,,,,,,,,,,,,Listen to the question and speak out your answer!,1866.4087009429932,None,1866.3734021186829,1868.4081721305847,Während meines Urlaubs werde ich nach China und Japan reisen.,reisen,1867.7914514541626,1871.575001001358,1871.9251165390015,None,1882.9922833442688,None,1884.4090011119843,None,./data/Subject_08/Session_03/Exp_data/2020_Aug_07_1202/rec_QA_run_02_block_001_trial_019.wav,,,,08,03,English,A2,True,False,True,False,False,True,True,True,True,True,True,True,No,2,No,No,No,No,2020_Aug_07_1202,nibs_stage_1,3.2.3,60.05142801509624,
2,0,2,0,,,,,1,0,1,0,20,0,20,0,,,,,,,,,,,,,,,,,,,,,,,,,,,,,,,,,,,,,,,,,,,,,,,,,Listen to the question and speak out your answer!,1887.442666053772,None,1887.4078636169434,1889.4426040649414,Paul hat zum Abendessen Kartoffelsuppe gegessen.,gegessen,1888.8259115219116,None,1892.2260835170746,None,1904.0266144275665,1905.0433940887451,1905.4434161186218,None,./data/Subject_08/Session_03/Exp_data/2020_Aug_07_1202/rec_QA_run_02_block_001_trial_020.wav,,,,08,03,English,A2,True,False,True,False,False,True,True,True,True,True,True,True,No,2,No,No,No,No,2020_Aug_07_1202,nibs_stage_1,3.2.3,60.05142801509624,
2,0,2,0,,,,,1,0,1,0,21,0,21,0,,,,,,,,,,,,,,,,,,,,,,,,,,,,,,,,,,,,,,,,,,,,,,,,,Listen to the question and speak out your answer!,1908.4774751663208,None,1908.4422426223755,1910.4772729873657,"Manchmal glaube ich, ich bin zu pessimistisch.",glaube,1909.8603575229645,None,1913.2271845340729,None,1925.0612075328827,None,1926.4778640270233,None,./data/Subject_08/Session_03/Exp_data/2020_Aug_07_1202/rec_QA_run_02_block_001_trial_021.wav,,,,08,03,English,A2,True,False,True,False,False,True,True,True,True,True,True,True,No,2,No,No,No,No,2020_Aug_07_1202,nibs_stage_1,3.2.3,60.05142801509624,
2,0,2,0,,,,,1,0,1,0,22,0,22,0,,,,,,,,,,,,,,,,,,,,,,,,,,,,,,,,,,,,,,,,,,,,,,,,,Listen to the question and speak out your answer!,1929.5119380950928,None,1929.4765915870667,1931.5114920139313,Bananen können wir in der Obstabteilung finden.,finden,1930.8947744369507,None,1934.1949484348297,None,1946.0957355499268,None,1947.5123200416565,None,./data/Subject_08/Session_03/Exp_data/2020_Aug_07_1202/rec_QA_run_02_block_001_trial_022.wav,,,,08,03,English,A2,True,False,True,False,False,True,True,True,True,True,True,True,No,2,No,No,No,No,2020_Aug_07_1202,nibs_stage_1,3.2.3,60.05142801509624,
2,0,2,0,,,,,1,0,1,0,23,0,23,0,,,,,,,,,,,,,,,,,,,,,,,,,,,,,,,,,,,,,,,,,,,,,,,,,Listen to the question and speak out your answer!,1950.5464329719543,None,1950.5278131961823,1952.5459220409393,Die Touristen besichtigten alle Sehenswürdigkeiten der Stadt.,besichtigten,1951.9292154312134,1955.6794049739838,1956.0627534389496,None,1967.1300225257874,None,1968.5470480918884,None,./data/Subject_08/Session_03/Exp_data/2020_Aug_07_1202/rec_QA_run_02_block_001_trial_023.wav,,,,08,03,English,A2,True,False,True,False,False,True,True,True,True,True,True,True,No,2,No,No,No,No,2020_Aug_07_1202,nibs_stage_1,3.2.3,60.05142801509624,
2,0,2,0,,,,,1,0,1,0,24,0,24,0,,,,,,,,,,,,,,,,,,,,,,,,,,,,,,,,,,,,,,,,,,,,,,,,,Listen to the question and speak out your answer!,1971.5803430080414,None,1971.5455408096313,1973.5803549289703,In der Arktis leben gefährliche Eisbären.,leben,1972.9303104877472,1975.8138780593872,1976.1971454620361,None,1988.131094455719,None,1989.5478570461273,None,./data/Subject_08/Session_03/Exp_data/2020_Aug_07_1202/rec_QA_run_02_block_001_trial_024.wav,,,,08,03,English,A2,True,False,True,False,False,True,True,True,True,True,True,True,No,2,No,No,No,No,2020_Aug_07_1202,nibs_stage_1,3.2.3,60.05142801509624,
2,0,2,0,,,,,1,0,1,0,,,,,,,,,,,,,,,,,,,,,,,,,,,,,,,,,,,,,,,,,,1993.598524093628,None,,,,,,,,,,,,,,,,,,,,,,,,,,,,,08,03,English,A2,True,False,True,False,False,True,True,True,True,True,True,True,No,2,No,No,No,No,2020_Aug_07_1202,nibs_stage_1,3.2.3,60.05142801509624,
2,0,2,0,,,,,,,,,,,,,,,,,,,,,,,,,,,,,,,,,,,,,,,,,,,,,,,,,,,,,,,,,,,,,,,,,,,,,,,,,,,,,Please remain seated until further instruction via the earphone.,63.19684410095215,None,08,03,English,A2,True,False,True,False,False,True,True,True,True,True,True,True,No,2,No,No,No,No,2020_Aug_07_1202,nibs_stage_1,3.2.3,60.05142801509624,
