run.thisRepN,run.thisTrialN,run.thisN,run.thisIndex,QA_block.thisRepN,QA_block.thisTrialN,QA_block.thisN,QA_block.thisIndex,QA_trial.thisRepN,QA_trial.thisTrialN,QA_trial.thisN,QA_trial.thisIndex,fade_in_text.text,fade_in_text.started,fade_in_text.stopped,RS_intro_title.started,RS_intro_title.stopped,RS_intro_text.text,RS_intro_text.started,RS_intro_text.stopped,RS_intro_audio.started,RS_intro_audio.stopped,RS_rec_text.text,RS_rec_text.started,RS_rec_text.stopped,Pause_cont.started,Pause_cont.stopped,QA_intro_title.started,QA_intro_title.stopped,QA_intro_text.text,QA_intro_text.started,QA_intro_text.stopped,QA_intro_audio.started,QA_intro_audio.stopped,QA_intro_cont.started,QA_intro_cont.stopped,QA_rec_text.text,QA_rec_text.started,QA_rec_text.stopped,QA_rec_beep_hint.started,QA_rec_beep_hint.stopped,QA_rec_question.sen_text,QA_rec_question.cen_text,QA_rec_question.started,QA_rec_question.stopped,QA_rec_beep_start.started,QA_rec_beep_start.stopped,QA_rec_beep_end.started,QA_rec_beep_end.stopped,QA_rec_break.started,QA_rec_break.stopped,filename,participant,session,First language,German level,Full_screen,Instruction,Intro,Artifact,Cali_pre,Fade_in_out,Artifact_within,Resting_State,QA,Pause,Cali_post,End,Breakpoint_Cali_pre_trial,Breakpoint_Run,Breakpoint_RS_block,Breakpoint_QA_block,Breakpoint_QA_trial,Breakpoint_Cali_post_trial,date,expName,psychopyVersion,frameRate,
0,0,0,0,0,0,0,0,0,0,0,0,Please remain seated until further instruction via the earphone.,53.53814911842346,None,263.04918813705444,None," - Task: Keep seated and relaxed with either      
             opening or closing eyes                  
 - Beep sound with decreasing pitch: Block finish 
",263.04918813705444,None,263.0167819738388,None,"Please keep relaxed and close your eyes.
",286.0836420059204,466.09284710884094,469.44302105903625,None,495.1277160644531,535.1631081104279," - Task: Listen to the question& Speak out answer 
 - Melodious beep sound: Trial start              
 - Silent sound (blank): censored word            
 - Beep sound with increasing pitch: Rec. start   
 - Beep sound with decreasing pitch: Rec. finish  
",495.1277160644531,535.1631081104279,495.1123957395554,None,534.513111114502,None,Listen to the question and speak out your answer!,540.5315721035004,None,540.5147136926652,542.5303721427917,In Wien tanzt man gerne Walzer.,tanzt,541.8969475984574,543.9804630279541,544.380498623848,545.3804662227631,557.0978386163712,558.0978651046753,558.4979040622711,559.4979510307312,./data/Subject_08/Session_03/Exp_data/2020_Aug_07_1045/rec_QA_run_00_block_000_trial_000.wav,08,03,English,A2,True,False,True,False,False,True,True,True,True,True,True,True,No,No,No,No,No,No,2020_Aug_07_1045,nibs_stage_1,3.2.3,59.9869279737072,
0,0,0,0,0,0,0,0,1,0,1,0,,,,,,,,,,,,,,,,,,,,,,,,,Listen to the question and speak out your answer!,561.5814411640167,None,561.5655669450761,563.5648350715637,"„Ich heiße Sam“, war der erste Satz, den er in großen Buchstaben schreiben konnte.",schreiben,562.9480645418167,None,568.3317606210709,None,578.1489286184311,None,579.5489130020142,580.5490591526031,./data/Subject_08/Session_03/Exp_data/2020_Aug_07_1045/rec_QA_run_00_block_000_trial_001.wav,08,03,English,A2,True,False,True,False,False,True,True,True,True,True,True,True,No,No,No,No,No,No,2020_Aug_07_1045,nibs_stage_1,3.2.3,59.9869279737072,
0,0,0,0,0,0,0,0,2,0,2,0,,,,,,,,,,,,,,,,,,,,,,,,,Listen to the question and speak out your answer!,582.5991561412811,None,582.5833475112915,584.5826141834259,In diesem Geschäft kann man billig einkaufen.,einkaufen,583.9658536672592,None,586.8994216680527,None,599.1667616128922,None,600.5667941570282,601.5669162273407,./data/Subject_08/Session_03/Exp_data/2020_Aug_07_1045/rec_QA_run_00_block_000_trial_002.wav,08,03,English,A2,True,False,True,False,False,True,True,True,True,True,True,True,No,No,No,No,No,No,2020_Aug_07_1045,nibs_stage_1,3.2.3,59.9869279737072,
0,0,0,0,0,0,0,0,3,0,3,0,,,,,,,,,,,,,,,,,,,,,,,,,Listen to the question and speak out your answer!,603.6504120826721,None,603.6177074432374,605.6170310974121,Herr Müller hat einen Flug auf die Mittelmeerinsel Mallorca gebucht.,gebucht,605.0172385931015,None,609.4006035089493,610.4173760414124,620.2178416013718,None,621.6181190013885,622.6179630756378,./data/Subject_08/Session_03/Exp_data/2020_Aug_07_1045/rec_QA_run_00_block_000_trial_003.wav,08,03,English,A2,True,False,True,False,False,True,True,True,True,True,True,True,No,No,No,No,No,No,2020_Aug_07_1045,nibs_stage_1,3.2.3,59.9869279737072,
0,0,0,0,0,0,0,0,4,0,4,0,,,,,,,,,,,,,,,,,,,,,,,,,Listen to the question and speak out your answer!,624.6683740615845,None,624.6522514343262,626.6513891220093,"Es ist nicht zulässig, bei der Prüfung Hilfsmittel zu benutzen.",benutzen,626.0511605501175,629.6846680641174,630.0849315881729,None,641.2522725820542,None,642.652626991272,643.6523711681366,./data/Subject_08/Session_03/Exp_data/2020_Aug_07_1045/rec_QA_run_00_block_000_trial_004.wav,08,03,English,A2,True,False,True,False,False,True,True,True,True,True,True,True,No,No,No,No,No,No,2020_Aug_07_1045,nibs_stage_1,3.2.3,59.9869279737072,
0,0,0,0,0,0,0,0,5,0,5,0,,,,,,,,,,,,,,,,,,,,,,,,,Listen to the question and speak out your answer!,645.7194871902466,None,645.686659526825,647.6859312057495,"Ich hoffe, dass ich und meine Tante gute Freunde für immer bleiben können.",hoffe,647.0858325719834,None,651.5527975320816,652.5528740882874,662.2866496801377,None,663.6867730617523,664.6871042251587,./data/Subject_08/Session_03/Exp_data/2020_Aug_07_1045/rec_QA_run_00_block_000_trial_005.wav,08,03,English,A2,True,False,True,False,False,True,True,True,True,True,True,True,No,No,No,No,No,No,2020_Aug_07_1045,nibs_stage_1,3.2.3,59.9869279737072,
0,0,0,0,0,0,0,0,6,0,6,0,,,,,,,,,,,,,,,,,,,,,,,,,Listen to the question and speak out your answer!,666.7539451122284,None,666.7380670785905,668.7537159919739,Martin geht in ein Reisebüro und lässt sich von einem Angestellten beraten.,beraten,668.1203436613083,None,673.1206354856491,None,683.3214134931565,None,684.721232175827,685.7212982177734,./data/Subject_08/Session_03/Exp_data/2020_Aug_07_1045/rec_QA_run_00_block_000_trial_006.wav,08,03,English,A2,True,False,True,False,False,True,True,True,True,True,True,True,No,No,No,No,No,No,2020_Aug_07_1045,nibs_stage_1,3.2.3,59.9869279737072,
0,0,0,0,0,0,0,0,7,0,7,0,,,,,,,,,,,,,,,,,,,,,,,,,Listen to the question and speak out your answer!,687.7716701030731,None,687.7555865764618,689.7549622058868,"Wenn du dich in einer gefährlichen Situation befindest, rufe nach Hilfe.",rufe,689.1547825098038,None,694.0550997018814,695.0550060272217,704.3555927038193,None,705.7555890083313,706.7557260990143,./data/Subject_08/Session_03/Exp_data/2020_Aug_07_1045/rec_QA_run_00_block_000_trial_007.wav,08,03,English,A2,True,False,True,False,False,True,True,True,True,True,True,True,No,No,No,No,No,No,2020_Aug_07_1045,nibs_stage_1,3.2.3,59.9869279737072,
0,0,0,0,0,0,0,0,8,0,8,0,,,,,,,,,,,,,,,,,,,,,,,,,Listen to the question and speak out your answer!,708.8055322170258,None,708.7900144577027,710.7893190383911,Die Verkäuferin beantwortete meine Fragen und konnte mich beraten.,beraten,710.1892707109452,None,714.6727435350418,None,725.4065725564957,None,726.7900900840759,727.790185213089,./data/Subject_08/Session_03/Exp_data/2020_Aug_07_1045/rec_QA_run_00_block_000_trial_008.wav,08,03,English,A2,True,False,True,False,False,True,True,True,True,True,True,True,No,No,No,No,No,No,2020_Aug_07_1045,nibs_stage_1,3.2.3,59.9869279737072,
0,0,0,0,0,0,0,0,9,0,9,0,,,,,,,,,,,,,,,,,,,,,,,,,Listen to the question and speak out your answer!,729.8583920001984,None,729.8411480665208,731.8400890827179,Morgen machen wir einen Ausflug in den Schönbrunner Tiergarten.,machen,731.2234434843064,None,735.273646569252,736.2737350463867,746.4245235681534,None,747.8243582248688,748.8244252204895,./data/Subject_08/Session_03/Exp_data/2020_Aug_07_1045/rec_QA_run_00_block_000_trial_009.wav,08,03,English,A2,True,False,True,False,False,True,True,True,True,True,True,True,No,No,No,No,No,No,2020_Aug_07_1045,nibs_stage_1,3.2.3,59.9869279737072,
0,0,0,0,0,0,0,0,10,0,10,0,,,,,,,,,,,,,,,,,,,,,,,,,Listen to the question and speak out your answer!,750.9080560207367,None,750.8920399427415,752.8912720680237,"Wie lange benötigt die Erde, um die Sonne zu umrunden?",benötigt,752.2745835542679,755.808268070221,756.2081885099411,None,767.4752735853195,None,768.8755311965942,769.8754072189331,./data/Subject_08/Session_03/Exp_data/2020_Aug_07_1045/rec_QA_run_00_block_000_trial_010.wav,08,03,English,A2,True,False,True,False,False,True,True,True,True,True,True,True,No,No,No,No,No,No,2020_Aug_07_1045,nibs_stage_1,3.2.3,59.9869279737072,
0,0,0,0,0,0,0,0,11,0,11,0,,,,,,,,,,,,,,,,,,,,,,,,,Listen to the question and speak out your answer!,771.9594612121582,None,771.9433924674988,773.9758021831512,"Das Messer ist so stumpf, dass wir nicht mehr brauchen.",brauchen,773.3424205541611,None,776.8092915773392,None,788.5599355459213,None,789.9766681194305,None,./data/Subject_08/Session_03/Exp_data/2020_Aug_07_1045/rec_QA_run_00_block_000_trial_011.wav,08,03,English,A2,True,False,True,False,False,True,True,True,True,True,True,True,No,No,No,No,No,No,2020_Aug_07_1045,nibs_stage_1,3.2.3,59.9869279737072,
0,0,0,0,0,0,0,0,12,0,12,0,,,,,,,,,,,,,,,,,,,,,,,,,Listen to the question and speak out your answer!,793.0103142261505,None,792.9776334285737,795.0102071762085,Das Eingreifen des Lehrers beendete den Streit.,beendete,794.3935346364975,797.5103390216827,797.8937237024307,798.9104220867157,809.5941745996475,810.610985994339,811.0110201835632,None,./data/Subject_08/Session_03/Exp_data/2020_Aug_07_1045/rec_QA_run_00_block_000_trial_012.wav,08,03,English,A2,True,False,True,False,False,True,True,True,True,True,True,True,No,No,No,No,No,No,2020_Aug_07_1045,nibs_stage_1,3.2.3,59.9869279737072,
0,0,0,0,0,0,0,0,13,0,13,0,,,,,,,,,,,,,,,,,,,,,,,,,Listen to the question and speak out your answer!,814.0283501148224,None,814.012005519867,816.02783203125,Mein Sohn wurde letztes Jahr geboren.,geboren,815.4112245798111,817.7613580226898,818.1447016954422,819.1614210605621,830.6120426416397,None,832.0289371013641,None,./data/Subject_08/Session_03/Exp_data/2020_Aug_07_1045/rec_QA_run_00_block_000_trial_013.wav,08,03,English,A2,True,False,True,False,False,True,True,True,True,True,True,True,No,No,No,No,No,No,2020_Aug_07_1045,nibs_stage_1,3.2.3,59.9869279737072,
0,0,0,0,0,0,0,0,14,0,14,0,,,,,,,,,,,,,,,,,,,,,,,,,Listen to the question and speak out your answer!,835.0793941020966,None,835.0631155490876,837.0790321826935,Willi möchte gerne an der Universität Informatik studieren.,studieren,836.4623477220536,None,840.6961326360703,None,851.66314265728,852.6798460483551,853.0798511505127,None,./data/Subject_08/Session_03/Exp_data/2020_Aug_07_1045/rec_QA_run_00_block_000_trial_014.wav,08,03,English,A2,True,False,True,False,False,True,True,True,True,True,True,True,No,No,No,No,No,No,2020_Aug_07_1045,nibs_stage_1,3.2.3,59.9869279737072,
0,0,0,0,0,0,0,0,15,0,15,0,,,,,,,,,,,,,,,,,,,,,,,,,Listen to the question and speak out your answer!,856.1467680931091,None,856.1141864776612,858.1469271183014,"Die ausgehende Post muss noch eintragen werden, da sie strenge Datenschutzrichtlinien haben.",eintragen,857.5301265478134,863.1471061706543,863.4970946073532,None,872.7309205293656,873.747642993927,874.14772605896,None,./data/Subject_08/Session_03/Exp_data/2020_Aug_07_1045/rec_QA_run_00_block_000_trial_015.wav,08,03,English,A2,True,False,True,False,False,True,True,True,True,True,True,True,No,No,No,No,No,No,2020_Aug_07_1045,nibs_stage_1,3.2.3,59.9869279737072,
0,0,0,0,0,0,0,0,16,0,16,0,,,,,,,,,,,,,,,,,,,,,,,,,Listen to the question and speak out your answer!,877.164792060852,None,877.1486384391785,879.1645832061768,Ich kann nicht mit dem Auto fahren.,fahren,878.5478875398636,880.5646681785583,880.9480325937271,None,893.7487075090409,None,895.1655440330505,None,./data/Subject_08/Session_03/Exp_data/2020_Aug_07_1045/rec_QA_run_00_block_000_trial_016.wav,08,03,English,A2,True,False,True,False,False,True,True,True,True,True,True,True,No,No,No,No,No,No,2020_Aug_07_1045,nibs_stage_1,3.2.3,59.9869279737072,
0,0,0,0,0,0,0,0,17,0,17,0,,,,,,,,,,,,,,,,,,,,,,,,,Listen to the question and speak out your answer!,898.2337322235107,None,898.2164658784867,900.2323641777039,"Wenn genug Schnee liegt, fahren sie gerne Schi.",fahren,899.6157355070114,902.4658131599426,902.8491647005081,903.86594414711,914.8164965867996,None,916.2332022190094,None,./data/Subject_08/Session_03/Exp_data/2020_Aug_07_1045/rec_QA_run_00_block_000_trial_017.wav,08,03,English,A2,True,False,True,False,False,True,True,True,True,True,True,True,No,No,No,No,No,No,2020_Aug_07_1045,nibs_stage_1,3.2.3,59.9869279737072,
0,0,0,0,0,0,0,0,18,0,18,0,,,,,,,,,,,,,,,,,,,,,,,,,Listen to the question and speak out your answer!,919.2670500278473,None,919.2509018659592,921.2668240070343,Plastik Müll belastet die Umwelt.,belastet,920.650129532814,None,923.4169406652451,924.4336581230164,935.8509166002274,None,937.2676501274109,None,./data/Subject_08/Session_03/Exp_data/2020_Aug_07_1045/rec_QA_run_00_block_000_trial_018.wav,08,03,English,A2,True,False,True,False,False,True,True,True,True,True,True,True,No,No,No,No,No,No,2020_Aug_07_1045,nibs_stage_1,3.2.3,59.9869279737072,
0,0,0,0,0,0,0,0,19,0,19,0,,,,,,,,,,,,,,,,,,,,,,,,,Listen to the question and speak out your answer!,940.3354132175446,None,940.3186859369279,942.3345901966095,Die Ausbildung besteht aus mehreren Modulen.,besteht,941.7179686784744,944.4680461883545,944.8513965368271,945.868161201477,956.9020375967026,None,958.318766117096,None,./data/Subject_08/Session_03/Exp_data/2020_Aug_07_1045/rec_QA_run_00_block_000_trial_019.wav,08,03,English,A2,True,False,True,False,False,True,True,True,True,True,True,True,No,No,No,No,No,No,2020_Aug_07_1045,nibs_stage_1,3.2.3,59.9869279737072,
0,0,0,0,0,0,0,0,20,0,20,0,,,,,,,,,,,,,,,,,,,,,,,,,Listen to the question and speak out your answer!,961.3856902122498,None,961.35309548378,963.3856980800629,Linda packt immer viel zu viele Kleidung in ihren Koffer.,packt,962.7690036058426,966.1525301933289,966.5025415182114,None,977.9698207139969,None,979.3865551948547,None,./data/Subject_08/Session_03/Exp_data/2020_Aug_07_1045/rec_QA_run_00_block_000_trial_020.wav,08,03,English,A2,True,False,True,False,False,True,True,True,True,True,True,True,No,No,No,No,No,No,2020_Aug_07_1045,nibs_stage_1,3.2.3,59.9869279737072,
0,0,0,0,0,0,0,0,21,0,21,0,,,,,,,,,,,,,,,,,,,,,,,,,Listen to the question and speak out your answer!,982.4211390018463,None,982.404231953621,984.4201431274414,Die Reparaturen werden ungefähr drei Stunden dauern.,dauern,983.80354449749,None,987.5036566019058,988.5203740596771,999.0042495489121,1000.0209531784058,1000.4209880828857,None,./data/Subject_08/Session_03/Exp_data/2020_Aug_07_1045/rec_QA_run_00_block_000_trial_021.wav,08,03,English,A2,True,False,True,False,False,True,True,True,True,True,True,True,No,No,No,No,No,No,2020_Aug_07_1045,nibs_stage_1,3.2.3,59.9869279737072,
0,0,0,0,0,0,0,0,22,0,22,0,,,,,,,,,,,,,,,,,,,,,,,,,Listen to the question and speak out your answer!,1003.4882261753082,None,1003.455366563797,1005.4879472255707,In der Morgen wasche ich mein Gesicht.,wasche,1004.8712396383286,None,1007.5380437135697,1008.554769039154,1020.0720665216446,None,1021.4887721538544,None,./data/Subject_08/Session_03/Exp_data/2020_Aug_07_1045/rec_QA_run_00_block_000_trial_022.wav,08,03,English,A2,True,False,True,False,False,True,True,True,True,True,True,True,No,No,No,No,No,No,2020_Aug_07_1045,nibs_stage_1,3.2.3,59.9869279737072,
0,0,0,0,0,0,0,0,23,0,23,0,,,,,,,,,,,,,,,,,,,,,,,,,Listen to the question and speak out your answer!,1024.505537033081,None,1024.4897753715516,1026.5056991577148,Im gleichen Jahr hat der amerikanische Bürgerkrieg begonnen.,begonnen,1025.8890175580977,None,1029.7892155408858,None,1041.0898356199264,1042.106768131256,1042.506560087204,None,./data/Subject_08/Session_03/Exp_data/2020_Aug_07_1045/rec_QA_run_00_block_000_trial_023.wav,08,03,English,A2,True,False,True,False,False,True,True,True,True,True,True,True,No,No,No,No,No,No,2020_Aug_07_1045,nibs_stage_1,3.2.3,59.9869279737072,
0,0,0,0,0,0,0,0,24,0,24,0,,,,,,,,,,,,,,,,,,,,,,,,,Listen to the question and speak out your answer!,1045.5736870765686,None,1045.5575560808181,1047.573622226715,"Sie hat Schlafmittel genommen, damit sie gut schlafen kann.",schlafen,1046.956800675392,None,1050.9236755132674,1051.9404771327972,1062.1576037168502,None,1063.5744140148163,None,./data/Subject_08/Session_03/Exp_data/2020_Aug_07_1045/rec_QA_run_00_block_000_trial_024.wav,08,03,English,A2,True,False,True,False,False,True,True,True,True,True,True,True,No,No,No,No,No,No,2020_Aug_07_1045,nibs_stage_1,3.2.3,59.9869279737072,
0,0,0,0,0,0,0,0,,,,,,,,,,,,,,,,,,1067.6246762275696,None,,,,,,,,,,,,,,,,,,,,,,,,,,08,03,English,A2,True,False,True,False,False,True,True,True,True,True,True,True,No,No,No,No,No,No,2020_Aug_07_1045,nibs_stage_1,3.2.3,59.9869279737072,
0,0,0,0,1,0,1,0,0,0,0,0,,,,,,,,,,,,,,,,,,,,,,,,,Listen to the question and speak out your answer!,1096.2761130332947,None,1096.2606016874313,1098.3094470500946,Ich möchte einen Tisch für das Abendessen reservieren.,reservieren,1097.6594185590743,1100.8097012043,1101.1595086812972,1102.176346063614,1112.8601145505904,None,1114.27681016922,None,./data/Subject_08/Session_03/Exp_data/2020_Aug_07_1045/rec_QA_run_00_block_001_trial_000.wav,08,03,English,A2,True,False,True,False,False,True,True,True,True,True,True,True,No,No,No,No,No,No,2020_Aug_07_1045,nibs_stage_1,3.2.3,59.9869279737072,
0,0,0,0,1,0,1,0,1,0,1,0,,,,,,,,,,,,,,,,,,,,,,,,,Listen to the question and speak out your answer!,1117.343815088272,None,1117.3278490781784,1119.343729019165,"Wenn Sie mit diesem Produkt nicht zufrieden sind, können wir eine Alternative anbieten.",anbieten,1118.7270385980605,None,1124.0272927045821,None,1133.9277765512466,1134.9445052146912,1135.3446111679077,None,./data/Subject_08/Session_03/Exp_data/2020_Aug_07_1045/rec_QA_run_00_block_001_trial_001.wav,08,03,English,A2,True,False,True,False,False,True,True,True,True,True,True,True,No,No,No,No,No,No,2020_Aug_07_1045,nibs_stage_1,3.2.3,59.9869279737072,
0,0,0,0,1,0,1,0,2,0,2,0,,,,,,,,,,,,,,,,,,,,,,,,,Listen to the question and speak out your answer!,1138.378005027771,None,1138.3454985141752,1140.378103017807,"Obst sollte man täglich essen, weil es wegen den Vitaminen sehr gesund ist.",essen,1139.7614035367965,None,1144.595050549507,1145.6116909980774,1154.962212538719,None,1156.3788812160492,None,./data/Subject_08/Session_03/Exp_data/2020_Aug_07_1045/rec_QA_run_00_block_001_trial_002.wav,08,03,English,A2,True,False,True,False,False,True,True,True,True,True,True,True,No,No,No,No,No,No,2020_Aug_07_1045,nibs_stage_1,3.2.3,59.9869279737072,
0,0,0,0,1,0,1,0,3,0,3,0,,,,,,,,,,,,,,,,,,,,,,,,,Listen to the question and speak out your answer!,1159.4130082130432,None,1159.3799025535582,1161.4124882221222,"Sie hat den Newsletter abonniert, um weitere Informationen zu erhalten.",abonniert,1160.795759654045,1165.1461081504822,1165.496016716957,None,1175.9965345621108,1177.013150215149,1177.4132862091064,None,./data/Subject_08/Session_03/Exp_data/2020_Aug_07_1045/rec_QA_run_00_block_001_trial_003.wav,08,03,English,A2,True,False,True,False,False,True,True,True,True,True,True,True,No,No,No,No,No,No,2020_Aug_07_1045,nibs_stage_1,3.2.3,59.9869279737072,
0,0,0,0,1,0,1,0,4,0,4,0,,,,,,,,,,,,,,,,,,,,,,,,,Listen to the question and speak out your answer!,1180.4467420578003,None,1180.4142515182493,1182.4468522071838,Alex duscht morgens gerne im Badezimmer.,duscht,1181.830150580406,None,1184.8303065061568,None,1197.014227604866,None,1198.43097615242,None,./data/Subject_08/Session_03/Exp_data/2020_Aug_07_1045/rec_QA_run_00_block_001_trial_004.wav,08,03,English,A2,True,False,True,False,False,True,True,True,True,True,True,True,No,No,No,No,No,No,2020_Aug_07_1045,nibs_stage_1,3.2.3,59.9869279737072,
0,0,0,0,1,0,1,0,5,0,5,0,,,,,,,,,,,,,,,,,,,,,,,,,Listen to the question and speak out your answer!,1201.4984102249146,None,1201.4653214931486,1203.4980211257935,Singapore liegt in Südostasien.,liegt,1202.8811967134475,None,1205.7146565675735,None,1218.0820066690444,None,1219.498680114746,None,./data/Subject_08/Session_03/Exp_data/2020_Aug_07_1045/rec_QA_run_00_block_001_trial_005.wav,08,03,English,A2,True,False,True,False,False,True,True,True,True,True,True,True,No,No,No,No,No,No,2020_Aug_07_1045,nibs_stage_1,3.2.3,59.9869279737072,
0,0,0,0,1,0,1,0,6,0,6,0,,,,,,,,,,,,,,,,,,,,,,,,,Listen to the question and speak out your answer!,1222.5163991451263,None,1222.4996735572813,1224.515605211258,"Das Fleisch wird klein geschnitten, und dann in der Pfanne gebraten.",gebraten,1223.8988885641097,1227.6824231147766,1228.0658066034316,None,1239.0996815919875,None,1240.5163969993591,None,./data/Subject_08/Session_03/Exp_data/2020_Aug_07_1045/rec_QA_run_00_block_001_trial_006.wav,08,03,English,A2,True,False,True,False,False,True,True,True,True,True,True,True,No,No,No,No,No,No,2020_Aug_07_1045,nibs_stage_1,3.2.3,59.9869279737072,
0,0,0,0,1,0,1,0,7,0,7,0,,,,,,,,,,,,,,,,,,,,,,,,,Listen to the question and speak out your answer!,1243.5835630893707,None,1243.567413020134,1245.5833110809326,Das Bild kann mir die Uhrzeitangabe verstehen helfen.,helfen,1244.966624712944,None,1248.5002176523208,None,1260.1673736333846,None,1261.5840990543365,None,./data/Subject_08/Session_03/Exp_data/2020_Aug_07_1045/rec_QA_run_00_block_001_trial_007.wav,08,03,English,A2,True,False,True,False,False,True,True,True,True,True,True,True,No,No,No,No,No,No,2020_Aug_07_1045,nibs_stage_1,3.2.3,59.9869279737072,
0,0,0,0,1,0,1,0,8,0,8,0,,,,,,,,,,,,,,,,,,,,,,,,,Listen to the question and speak out your answer!,1264.6514811515808,None,1264.6184405803679,1266.6510310173035,Dank genügend Sonnenschein und Wasser können im Amazonaswald riesige Bäume wachsen.,wachsen,1266.034340596199,None,1271.5012686014175,None,1281.235117650032,None,1282.6518120765686,None,./data/Subject_08/Session_03/Exp_data/2020_Aug_07_1045/rec_QA_run_00_block_001_trial_008.wav,08,03,English,A2,True,False,True,False,False,True,True,True,True,True,True,True,No,No,No,No,No,No,2020_Aug_07_1045,nibs_stage_1,3.2.3,59.9869279737072,
0,0,0,0,1,0,1,0,9,0,9,0,,,,,,,,,,,,,,,,,,,,,,,,,Listen to the question and speak out your answer!,1285.6854321956635,None,1285.6528205394743,1287.6855380535126,An unserem Baum hängen viele reife Birnen,hängen,1287.0687246084212,None,1290.268890595436,1291.28564620018,1302.2362515687942,None,1303.6529080867767,None,./data/Subject_08/Session_03/Exp_data/2020_Aug_07_1045/rec_QA_run_00_block_001_trial_009.wav,08,03,English,A2,True,False,True,False,False,True,True,True,True,True,True,True,No,No,No,No,No,No,2020_Aug_07_1045,nibs_stage_1,3.2.3,59.9869279737072,
0,0,0,0,1,0,1,0,10,0,10,0,,,,,,,,,,,,,,,,,,,,,,,,,Listen to the question and speak out your answer!,1306.719722032547,None,1306.6873454570768,1308.7197761535645,Er entschuldigte sich für seinen Fehler.,entschuldigte,1308.0697815179824,1310.5199000835419,1310.9032315969466,1311.919958114624,1323.2706825494765,1324.2872731685638,1324.6872742176056,None,./data/Subject_08/Session_03/Exp_data/2020_Aug_07_1045/rec_QA_run_00_block_001_trial_010.wav,08,03,English,A2,True,False,True,False,False,True,True,True,True,True,True,True,No,No,No,No,No,No,2020_Aug_07_1045,nibs_stage_1,3.2.3,59.9869279737072,
0,0,0,0,1,0,1,0,11,0,11,0,,,,,,,,,,,,,,,,,,,,,,,,,Listen to the question and speak out your answer!,1327.754459142685,None,1327.7216023921965,1329.754459142685,Mein Freund führt ein erfolgreiches Geschäft.,führt,1329.1375105142592,None,1332.237670636177,None,1344.338286614418,None,1345.755311012268,None,./data/Subject_08/Session_03/Exp_data/2020_Aug_07_1045/rec_QA_run_00_block_001_trial_011.wav,08,03,English,A2,True,False,True,False,False,True,True,True,True,True,True,True,No,No,No,No,No,No,2020_Aug_07_1045,nibs_stage_1,3.2.3,59.9869279737072,
0,0,0,0,1,0,1,0,12,0,12,0,,,,,,,,,,,,,,,,,,,,,,,,,Listen to the question and speak out your answer!,1348.7900850772858,None,1348.7559945106505,1350.7888441085815,"Sie beschrieb der Polizei den Dieb so genau, dass diese ihn festnehmen konnnte.",beschrieb,1350.171888566017,1354.6554310321808,1355.038718676567,None,1365.3726615667342,None,1366.789412021637,None,./data/Subject_08/Session_03/Exp_data/2020_Aug_07_1045/rec_QA_run_00_block_001_trial_012.wav,08,03,English,A2,True,False,True,False,False,True,True,True,True,True,True,True,No,No,No,No,No,No,2020_Aug_07_1045,nibs_stage_1,3.2.3,59.9869279737072,
0,0,0,0,1,0,1,0,13,0,13,0,,,,,,,,,,,,,,,,,,,,,,,,,Listen to the question and speak out your answer!,1369.8396520614624,None,1369.8070909261703,1371.8395540714264,Der ganze Kurs bestand die Prüfung.,bestand,1371.189623570442,None,1373.8564266920089,1374.873130083084,1386.3903887033462,None,1387.8071269989014,None,./data/Subject_08/Session_03/Exp_data/2020_Aug_07_1045/rec_QA_run_00_block_001_trial_013.wav,08,03,English,A2,True,False,True,False,False,True,True,True,True,True,True,True,No,No,No,No,No,No,2020_Aug_07_1045,nibs_stage_1,3.2.3,59.9869279737072,
0,0,0,0,1,0,1,0,14,0,14,0,,,,,,,,,,,,,,,,,,,,,,,,,Listen to the question and speak out your answer!,1390.874123096466,None,1390.858179974556,1392.874076128006,Sarah badet lieber abends in der Wanne.,badet,1392.2573506593703,None,1395.0574955701827,None,1407.4247936964034,1408.4415950775146,1408.8415222167969,1409.8749120235443,./data/Subject_08/Session_03/Exp_data/2020_Aug_07_1045/rec_QA_run_00_block_001_trial_014.wav,08,03,English,A2,True,False,True,False,False,True,True,True,True,True,True,True,No,No,No,No,No,No,2020_Aug_07_1045,nibs_stage_1,3.2.3,59.9869279737072,
0,0,0,0,1,0,1,0,15,0,15,0,,,,,,,,,,,,,,,,,,,,,,,,,Listen to the question and speak out your answer!,1411.942300081253,None,1411.9092003822325,1413.9417769908905,Morgen ändert sich das Wetter ganz bestimmt.,bestimmt,1413.3250975370406,None,1416.1585485696792,None,1428.5258495569228,None,1429.9426221847534,None,./data/Subject_08/Session_03/Exp_data/2020_Aug_07_1045/rec_QA_run_00_block_001_trial_015.wav,08,03,English,A2,True,False,True,False,False,True,True,True,True,True,True,True,No,No,No,No,No,No,2020_Aug_07_1045,nibs_stage_1,3.2.3,59.9869279737072,
0,0,0,0,1,0,1,0,16,0,16,0,,,,,,,,,,,,,,,,,,,,,,,,,Listen to the question and speak out your answer!,1432.9934101104736,None,1432.9602910757064,1434.9928340911865,Das Herz kann Blut durch den Körper pumpen.,pumpen,1434.3428106069564,None,1437.3763015031814,None,1449.5435735940932,None,1450.9603250026703,None,./data/Subject_08/Session_03/Exp_data/2020_Aug_07_1045/rec_QA_run_00_block_001_trial_016.wav,08,03,English,A2,True,False,True,False,False,True,True,True,True,True,True,True,No,No,No,No,No,No,2020_Aug_07_1045,nibs_stage_1,3.2.3,59.9869279737072,
0,0,0,0,1,0,1,0,17,0,17,0,,,,,,,,,,,,,,,,,,,,,,,,,Listen to the question and speak out your answer!,1454.0280430316925,None,1454.0114769220352,1456.0272960662842,Wir haben während des Urlaubs ein gemütliches Zimmer in Meeresnähe gemietet.,gemietet,1455.410555577278,None,1460.310799574852,None,1470.6113135576247,None,1472.0280539989471,None,./data/Subject_08/Session_03/Exp_data/2020_Aug_07_1045/rec_QA_run_00_block_001_trial_017.wav,08,03,English,A2,True,False,True,False,False,True,True,True,True,True,True,True,No,No,No,No,No,No,2020_Aug_07_1045,nibs_stage_1,3.2.3,59.9869279737072,
0,0,0,0,1,0,1,0,18,0,18,0,,,,,,,,,,,,,,,,,,,,,,,,,Listen to the question and speak out your answer!,1475.0953471660614,None,1475.0624293804167,1477.094996213913,Brot kann man in der Bäckerei kaufen.,kaufen,1476.4782767057418,1478.6618711948395,1479.045375561714,None,1491.679052567482,None,1493.0958111286163,None,./data/Subject_08/Session_03/Exp_data/2020_Aug_07_1045/rec_QA_run_00_block_001_trial_018.wav,08,03,English,A2,True,False,True,False,False,True,True,True,True,True,True,True,No,No,No,No,No,No,2020_Aug_07_1045,nibs_stage_1,3.2.3,59.9869279737072,
0,0,0,0,1,0,1,0,19,0,19,0,,,,,,,,,,,,,,,,,,,,,,,,,Listen to the question and speak out your answer!,1496.1298820972443,None,1496.096920442581,1498.1293840408325,Mein älterer Bruder mag Rock spielen und hören.,hören,1497.5127906560897,1500.4299991130829,1500.813131546974,None,1512.713500714302,None,1514.1301882266998,None,./data/Subject_08/Session_03/Exp_data/2020_Aug_07_1045/rec_QA_run_00_block_001_trial_019.wav,08,03,English,A2,True,False,True,False,False,True,True,True,True,True,True,True,No,No,No,No,No,No,2020_Aug_07_1045,nibs_stage_1,3.2.3,59.9869279737072,
0,0,0,0,1,0,1,0,20,0,20,0,,,,,,,,,,,,,,,,,,,,,,,,,Listen to the question and speak out your answer!,1517.1642611026764,None,1517.1312045574186,1519.1637802124023,"Nach einem Match hat sie keine Stimme mehr,  weil sie so laut schreit.",schreit,1518.5137576818465,None,1522.7806865930556,1523.7973551750183,1533.7145566701888,1534.7312400341034,1535.1313781738281,None,./data/Subject_08/Session_03/Exp_data/2020_Aug_07_1045/rec_QA_run_00_block_001_trial_020.wav,08,03,English,A2,True,False,True,False,False,True,True,True,True,True,True,True,No,No,No,No,No,No,2020_Aug_07_1045,nibs_stage_1,3.2.3,59.9869279737072,
0,0,0,0,1,0,1,0,21,0,21,0,,,,,,,,,,,,,,,,,,,,,,,,,Listen to the question and speak out your answer!,1538.2148551940918,None,1538.182297873497,1540.2148711681366,Er möchte sich für meine Hilfe bedanken.,bedanken,1539.5647575616836,None,1542.264982676506,None,1554.7656416654586,1555.7823321819305,1556.1823420524597,None,./data/Subject_08/Session_03/Exp_data/2020_Aug_07_1045/rec_QA_run_00_block_001_trial_021.wav,08,03,English,A2,True,False,True,False,False,True,True,True,True,True,True,True,No,No,No,No,No,No,2020_Aug_07_1045,nibs_stage_1,3.2.3,59.9869279737072,
0,0,0,0,1,0,1,0,22,0,22,0,,,,,,,,,,,,,,,,,,,,,,,,,Listen to the question and speak out your answer!,1559.2664771080017,None,1559.2333630800247,1561.2659602165222,An der nächsten Kreuzung müssen Sie rechts abbiegen.,abbiegen,1560.6159856081008,None,1563.849411702156,None,1575.8166856527328,None,1577.2334151268005,None,./data/Subject_08/Session_03/Exp_data/2020_Aug_07_1045/rec_QA_run_00_block_001_trial_022.wav,08,03,English,A2,True,False,True,False,False,True,True,True,True,True,True,True,No,No,No,No,No,No,2020_Aug_07_1045,nibs_stage_1,3.2.3,59.9869279737072,
0,0,0,0,1,0,1,0,23,0,23,0,,,,,,,,,,,,,,,,,,,,,,,,,Listen to the question and speak out your answer!,1580.3008930683136,None,1580.267799568176,1582.3003480434418,"Du kannst den Hund streicheln, er wird dich nicht beißen.",beißen,1581.650322651863,1584.66712808609,1585.0505406618117,None,1596.8512406110763,None,1598.2678320407867,None,./data/Subject_08/Session_03/Exp_data/2020_Aug_07_1045/rec_QA_run_00_block_001_trial_023.wav,08,03,English,A2,True,False,True,False,False,True,True,True,True,True,True,True,No,No,No,No,No,No,2020_Aug_07_1045,nibs_stage_1,3.2.3,59.9869279737072,
0,0,0,0,1,0,1,0,24,0,24,0,,,,,,,,,,,,,,,,,,,,,,,,,Listen to the question and speak out your answer!,1601.3352901935577,None,1601.3021654605864,1603.3347570896149,"Wenn es am Sonntag Morgen regnet, bleibt Franz den ganzen Tag im Bett.",bleibt,1602.7180795431136,1606.8683969974518,1607.2516295671462,1608.268485069275,1617.9188415765761,1618.9355750083923,1619.3355920314789,None,./data/Subject_08/Session_03/Exp_data/2020_Aug_07_1045/rec_QA_run_00_block_001_trial_024.wav,08,03,English,A2,True,False,True,False,False,True,True,True,True,True,True,True,No,No,No,No,No,No,2020_Aug_07_1045,nibs_stage_1,3.2.3,59.9869279737072,
