run.thisRepN,run.thisTrialN,run.thisN,run.thisIndex,QA_block.thisRepN,QA_block.thisTrialN,QA_block.thisN,QA_block.thisIndex,QA_trial.thisRepN,QA_trial.thisTrialN,QA_trial.thisN,QA_trial.thisIndex,post_trial.thisRepN,post_trial.thisTrialN,post_trial.thisN,post_trial.thisIndex,Cali_de_post_rec_text.text,Cali_de_post_rec_text.started,Cali_de_post_rec_text.stopped,Cali_de_post_rec_beep_hint.started,Cali_de_post_rec_beep_hint.stopped,Cali_de_post_rec_question_text.text,Cali_de_post_rec_question_text.started,Cali_de_post_rec_question_text.stopped,Cali_de_post_rec_beep_start.started,Cali_de_post_rec_beep_start.stopped,Cali_de_post_rec_beep_end.started,Cali_de_post_rec_beep_end.stopped,Cali_de_post_rec_break.started,Cali_de_post_rec_break.stopped,filename,the_end_text.started,the_end_text.stopped,the_end_text.text,participant,session,First language,German level,Full_screen,Instruction,Intro,Artifact,Cali_pre,Fade_in_out,Artifact_within,Resting_State,QA,Pause,Cali_post,End,Breakpoint_Cali_pre_trial,Breakpoint_Run,Breakpoint_RS_block,Breakpoint_QA_block,Breakpoint_QA_trial,Breakpoint_Cali_post_trial,date,expName,psychopyVersion,frameRate,
0,0,0,0,0,0,0,0,,,,,,,,,,,,,,,,,,,,,,,,,,,05,01,Norwegian,B1,True,False,False,False,False,False,False,False,False,False,True,True,No,No,No,No,No,No,2020_Aug_10_1231,nibs_stage_1,3.2.3,60.018602414879645,
0,0,0,0,1,0,1,0,,,,,,,,,,,,,,,,,,,,,,,,,,,05,01,Norwegian,B1,True,False,False,False,False,False,False,False,False,False,True,True,No,No,No,No,No,No,2020_Aug_10_1231,nibs_stage_1,3.2.3,60.018602414879645,
0,0,0,0,,,,,,,,,,,,,,,,,,,,,,,,,,,,,,,05,01,Norwegian,B1,True,False,False,False,False,False,False,False,False,False,True,True,No,No,No,No,No,No,2020_Aug_10_1231,nibs_stage_1,3.2.3,60.018602414879645,
1,0,1,0,0,0,0,0,,,,,,,,,,,,,,,,,,,,,,,,,,,05,01,Norwegian,B1,True,False,False,False,False,False,False,False,False,False,True,True,No,No,No,No,No,No,2020_Aug_10_1231,nibs_stage_1,3.2.3,60.018602414879645,
1,0,1,0,1,0,1,0,,,,,,,,,,,,,,,,,,,,,,,,,,,05,01,Norwegian,B1,True,False,False,False,False,False,False,False,False,False,True,True,No,No,No,No,No,No,2020_Aug_10_1231,nibs_stage_1,3.2.3,60.018602414879645,
1,0,1,0,,,,,,,,,,,,,,,,,,,,,,,,,,,,,,,05,01,Norwegian,B1,True,False,False,False,False,False,False,False,False,False,True,True,No,No,No,No,No,No,2020_Aug_10_1231,nibs_stage_1,3.2.3,60.018602414879645,
2,0,2,0,0,0,0,0,,,,,,,,,,,,,,,,,,,,,,,,,,,05,01,Norwegian,B1,True,False,False,False,False,False,False,False,False,False,True,True,No,No,No,No,No,No,2020_Aug_10_1231,nibs_stage_1,3.2.3,60.018602414879645,
2,0,2,0,1,0,1,0,,,,,,,,,,,,,,,,,,,,,,,,,,,05,01,Norwegian,B1,True,False,False,False,False,False,False,False,False,False,True,True,No,No,No,No,No,No,2020_Aug_10_1231,nibs_stage_1,3.2.3,60.018602414879645,
2,0,2,0,,,,,,,,,,,,,,,,,,,,,,,,,,,,,,,05,01,Norwegian,B1,True,False,False,False,False,False,False,False,False,False,True,True,No,No,No,No,No,No,2020_Aug_10_1231,nibs_stage_1,3.2.3,60.018602414879645,
3,0,3,0,0,0,0,0,,,,,,,,,,,,,,,,,,,,,,,,,,,05,01,Norwegian,B1,True,False,False,False,False,False,False,False,False,False,True,True,No,No,No,No,No,No,2020_Aug_10_1231,nibs_stage_1,3.2.3,60.018602414879645,
3,0,3,0,1,0,1,0,,,,,,,,,,,,,,,,,,,,,,,,,,,05,01,Norwegian,B1,True,False,False,False,False,False,False,False,False,False,True,True,No,No,No,No,No,No,2020_Aug_10_1231,nibs_stage_1,3.2.3,60.018602414879645,
3,0,3,0,,,,,,,,,,,,,,,,,,,,,,,,,,,,,,,05,01,Norwegian,B1,True,False,False,False,False,False,False,False,False,False,True,True,No,No,No,No,No,No,2020_Aug_10_1231,nibs_stage_1,3.2.3,60.018602414879645,
,,,,,,,,,,,,0,0,0,0,,148.17418503761292,None,148.14872007369996,150.15755796432495,Manche Politiker wollen den Frieden auf Erden sichern.,149.54086208343506,167.14196395874023,150.9409439086914,None,163.74162096977233,None,165.14169597625732,167.14196395874023,./data/Subject_05/Session_01/Exp_data/2020_Aug_10_1231/rec_cali_de_post_trial_000.wav,,,,05,01,Norwegian,B1,True,False,False,False,False,False,False,False,False,False,True,True,No,No,No,No,No,No,2020_Aug_10_1231,nibs_stage_1,3.2.3,60.018602414879645,
,,,,,,,,,,,,1,0,1,0,,170.17520809173584,None,170.15903539657592,172.15873503684998,Ferdinand Magellan hat als Erster die Welt umsegelt.,171.5587010383606,189.1596360206604,172.9587718963623,None,185.75954790115355,None,187.15956902503967,189.1596360206604,./data/Subject_05/Session_01/Exp_data/2020_Aug_10_1231/rec_cali_de_post_trial_001.wav,,,,05,01,Norwegian,B1,True,False,False,False,False,False,False,False,False,False,True,True,No,No,No,No,No,No,2020_Aug_10_1231,nibs_stage_1,3.2.3,60.018602414879645,
,,,,,,,,,,,,2,0,2,0,,192.19302201271057,None,192.17686839103698,194.17660117149353,Entweder hat mir jemand die Geldtasche gestohlen oder ich habe sie verloren.,193.57651901245117,211.17746210098267,194.97663493156432,None,207.77749605178832,None,209.17739295959473,211.17746210098267,./data/Subject_05/Session_01/Exp_data/2020_Aug_10_1231/rec_cali_de_post_trial_002.wav,,,,05,01,Norwegian,B1,True,False,False,False,False,False,False,False,False,False,True,True,No,No,No,No,No,No,2020_Aug_10_1231,nibs_stage_1,3.2.3,60.018602414879645,
,,,,,,,,,,,,3,0,3,0,,214.21108102798462,None,214.19469637870787,216.19443202018738,Ich bürste dir die Haare.,215.59434914588928,233.19529008865356,216.9944369316101,None,229.79513282775878,None,231.19510698318481,233.19529008865356,./data/Subject_05/Session_01/Exp_data/2020_Aug_10_1231/rec_cali_de_post_trial_003.wav,,,,05,01,Norwegian,B1,True,False,False,False,False,False,False,False,False,False,True,True,No,No,No,No,No,No,2020_Aug_10_1231,nibs_stage_1,3.2.3,60.018602414879645,
,,,,,,,,,,,,4,0,4,0,,236.2288420200348,None,236.2125184059143,238.21226906776428,Durch ein Fernrohr kann man manchmal sogar die Venus sehen.,237.6122031211853,255.2130410671234,239.0122990131378,None,251.81286187171935,None,253.2130069732666,255.2130410671234,./data/Subject_05/Session_01/Exp_data/2020_Aug_10_1231/rec_cali_de_post_trial_004.wav,,,,05,01,Norwegian,B1,True,False,False,False,False,False,False,False,False,False,True,True,No,No,No,No,No,No,2020_Aug_10_1231,nibs_stage_1,3.2.3,60.018602414879645,
,,,,,,,,,,,,5,0,5,0,,258.24661111831665,None,258.2303692817688,260.2298059463501,In Österreich darf ein Präsident 6 Jahre regieren.,259.6297769546509,277.2307929992676,261.0298580646515,None,273.83064098358153,None,275.23063015937805,277.2307929992676,./data/Subject_05/Session_01/Exp_data/2020_Aug_10_1231/rec_cali_de_post_trial_005.wav,,,,05,01,Norwegian,B1,True,False,False,False,False,False,False,False,False,False,True,True,No,No,No,No,No,No,2020_Aug_10_1231,nibs_stage_1,3.2.3,60.018602414879645,
,,,,,,,,,,,,6,0,6,0,,280.2643070220947,None,280.24815340042113,282.24763894081116,Dieses Brot ist maschinell hergestellt worden.,281.64770793914795,299.24865794181824,283.04768390655516,None,295.83174605369567,None,297.2319929599762,299.2319829463959,./data/Subject_05/Session_01/Exp_data/2020_Aug_10_1231/rec_cali_de_post_trial_006.wav,,,,05,01,Norwegian,B1,True,False,False,False,False,False,False,False,False,False,True,True,No,No,No,No,No,No,2020_Aug_10_1231,nibs_stage_1,3.2.3,60.018602414879645,
,,,,,,,,,,,,7,0,7,0,,302.2821340560913,None,302.2658733844757,304.26549100875854,Das Gegenteil von schwarz ist weiß.,303.64878511428833,321.24972009658813,305.0656039237976,None,317.8495499610901,None,319.24954199790955,321.24972009658813,./data/Subject_05/Session_01/Exp_data/2020_Aug_10_1231/rec_cali_de_post_trial_007.wav,,,,05,01,Norwegian,B1,True,False,False,False,False,False,False,False,False,False,True,True,No,No,No,No,No,No,2020_Aug_10_1231,nibs_stage_1,3.2.3,60.018602414879645,
,,,,,,,,,,,,8,0,8,0,,324.2999539375305,None,324.28354330062865,326.2832410335541,Lenas Hund Tobi wird immer am Abend gefüttert.,325.68342208862305,343.2842049598694,327.0832969665527,None,339.88403100967406,340.884006023407,341.28402495384216,343.2842049598694,./data/Subject_05/Session_01/Exp_data/2020_Aug_10_1231/rec_cali_de_post_trial_008.wav,,,,05,01,Norwegian,B1,True,False,False,False,False,False,False,False,False,False,True,True,No,No,No,No,No,No,2020_Aug_10_1231,nibs_stage_1,3.2.3,60.018602414879645,
,,,,,,,,,,,,9,0,9,0,,346.31834411621094,None,346.30143041610717,348.30105900764465,Im Herbst fallen die Blätter von den Bäumen.,347.7012400627136,365.3020260334015,349.10110087394713,None,361.90186805725097,None,363.3020761013031,365.3020260334015,./data/Subject_05/Session_01/Exp_data/2020_Aug_10_1231/rec_cali_de_post_trial_009.wav,,,,05,01,Norwegian,B1,True,False,False,False,False,False,False,False,False,False,True,True,No,No,No,No,No,No,2020_Aug_10_1231,nibs_stage_1,3.2.3,60.018602414879645,
,,,,,,,,,,,,,,,,,,,,,,,,,,,,,,,368.3190929889679,None," This experiment is finished. 
Thanks for your participation.",,,,,,,,,,,,,,,,,,,,,,,,,,,
