run.thisRepN,run.thisTrialN,run.thisN,run.thisIndex,QA_block.thisRepN,QA_block.thisTrialN,QA_block.thisN,QA_block.thisIndex,QA_trial.thisRepN,QA_trial.thisTrialN,QA_trial.thisN,QA_trial.thisIndex,fade_in_text.text,fade_in_text.started,fade_in_text.stopped,RS_intro_title.started,RS_intro_title.stopped,RS_intro_text.text,RS_intro_text.started,RS_intro_text.stopped,RS_intro_audio.started,RS_intro_audio.stopped,RS_rec_text.text,RS_rec_text.started,RS_rec_text.stopped,Pause_cont.started,Pause_cont.stopped,QA_intro_title.started,QA_intro_title.stopped,QA_intro_text.text,QA_intro_text.started,QA_intro_text.stopped,QA_intro_audio.started,QA_intro_audio.stopped,QA_intro_cont.started,QA_intro_cont.stopped,QA_rec_text.text,QA_rec_text.started,QA_rec_text.stopped,QA_rec_beep_hint.started,QA_rec_beep_hint.stopped,QA_rec_question.sen_text,QA_rec_question.cen_text,QA_rec_question.started,QA_rec_question.stopped,QA_rec_beep_start.started,QA_rec_beep_start.stopped,QA_rec_beep_end.started,QA_rec_beep_end.stopped,QA_rec_break.started,QA_rec_break.stopped,filename,participant,session,First language,German level,Full_screen,Instruction,Intro,Artifact,Cali_pre,Fade_in_out,Artifact_within,Resting_State,QA,Pause,Cali_post,End,Breakpoint_Cali_pre_trial,Breakpoint_Run,Breakpoint_RS_block,Breakpoint_QA_block,Breakpoint_QA_trial,Breakpoint_Cali_post_trial,date,expName,psychopyVersion,frameRate,
3,0,3,0,0,0,0,0,0,0,0,0,Please remain seated until further instruction via the earphone.,62.291916847229004,None,271.75319385528564,None," - Task: Keep seated and relaxed with either      
             opening or closing eyes                  
 - Beep sound with decreasing pitch: Block finish 
",271.75319385528564,None,271.7367726325989,None,"Please keep relaxed and close your eyes.
",294.78770184516907,474.7968759536743,478.1640188694,None,493.24806785583496,533.266697883606," - Task: Listen to the question& Speak out answer 
 - Melodious beep sound: Trial start              
 - Silent sound (blank): censored word            
 - Beep sound with increasing pitch: Rec. start   
 - Beep sound with decreasing pitch: Rec. finish  
",493.24806785583496,533.266697883606,493.23155348300935,None,532.6333129405975,None,Listen to the question and speak out your answer!,536.5168688297272,None,536.5004995822906,538.5001997947693,In diesem Geschäft kann man billig einkaufen.,einkaufen,537.9002720594406,None,540.8339020490646,None,553.1013001680374,None,554.50137591362,555.5014228820801,./data/Subject_05/Session_01/Exp_data/2020_Aug_10_1203/rec_QA_run_03_block_000_trial_000.wav,05,01,Norwegian,A2,True,False,True,False,False,True,True,True,True,True,True,True,No,3,No,No,No,No,2020_Aug_10_1203,nibs_stage_1,3.2.3,60.024786694182,
3,0,3,0,0,0,0,0,1,0,1,0,,,,,,,,,,,,,,,,,,,,,,,,,Listen to the question and speak out your answer!,557.5682499408722,None,557.5517347097397,559.5516200065613,Der Test dauert nur fünfzehn Minuten.,dauert,558.9349300146102,561.3517758846283,561.751789021492,None,574.1357690572738,None,575.5364878177643,576.5358369350433,./data/Subject_05/Session_01/Exp_data/2020_Aug_10_1203/rec_QA_run_03_block_000_trial_001.wav,05,01,Norwegian,A2,True,False,True,False,False,True,True,True,True,True,True,True,No,3,No,No,No,No,2020_Aug_10_1203,nibs_stage_1,3.2.3,60.024786694182,
3,0,3,0,0,0,0,0,2,0,2,0,,,,,,,,,,,,,,,,,,,,,,,,,Listen to the question and speak out your answer!,578.602630853653,None,578.5861574172973,580.5862510204315,"Bitten aufpassen, zu viel Zucker schadet der Gesundheit.",aufpassen,579.9864072084426,583.3528859615326,583.7528931379318,584.7529528141022,595.1868321180343,None,596.587080001831,597.5869770050049,./data/Subject_05/Session_01/Exp_data/2020_Aug_10_1203/rec_QA_run_03_block_000_trial_002.wav,05,01,Norwegian,A2,True,False,True,False,False,True,True,True,True,True,True,True,No,3,No,No,No,No,2020_Aug_10_1203,nibs_stage_1,3.2.3,60.024786694182,
3,0,3,0,0,0,0,0,3,0,3,0,,,,,,,,,,,,,,,,,,,,,,,,,Listen to the question and speak out your answer!,599.6535108089447,None,599.6372888326645,601.6371829509735,Muss ich mit dem Bus fahren oder kann ich zu Fuß gehen?,gehen,601.0370220422744,604.120847940445,604.5042261362075,None,616.2212671518325,None,617.6213409900665,618.6214029788971,./data/Subject_05/Session_01/Exp_data/2020_Aug_10_1203/rec_QA_run_03_block_000_trial_003.wav,05,01,Norwegian,A2,True,False,True,False,False,True,True,True,True,True,True,True,No,3,No,No,No,No,2020_Aug_10_1203,nibs_stage_1,3.2.3,60.024786694182,
3,0,3,0,0,0,0,0,4,0,4,0,,,,,,,,,,,,,,,,,,,,,,,,,Listen to the question and speak out your answer!,620.6719899177551,None,620.6550456047057,622.6549417972565,Während oder nach einem Regen kann man einen Regenbogen vorsehen.,vorsehen,622.0383090257644,None,626.3218070745468,627.3218657970428,637.2392861127853,638.2391159534454,638.6555938720703,639.6560158729553,./data/Subject_05/Session_01/Exp_data/2020_Aug_10_1203/rec_QA_run_03_block_000_trial_004.wav,05,01,Norwegian,A2,True,False,True,False,False,True,True,True,True,True,True,True,No,3,No,No,No,No,2020_Aug_10_1203,nibs_stage_1,3.2.3,60.024786694182,
3,0,3,0,0,0,0,0,5,0,5,0,,,,,,,,,,,,,,,,,,,,,,,,,Listen to the question and speak out your answer!,641.7063808441162,None,641.689658498764,643.6894237995148,"Das Messer ist so stumpf, dass wir nicht mehr brauchen.",brauchen,643.0895551919937,None,646.5562872171402,647.5562739372253,658.2901260137558,None,659.6902298927307,660.6904048919678,./data/Subject_05/Session_01/Exp_data/2020_Aug_10_1203/rec_QA_run_03_block_000_trial_005.wav,05,01,Norwegian,A2,True,False,True,False,False,True,True,True,True,True,True,True,No,3,No,No,No,No,2020_Aug_10_1203,nibs_stage_1,3.2.3,60.024786694182,
3,0,3,0,0,0,0,0,6,0,6,0,,,,,,,,,,,,,,,,,,,,,,,,,Listen to the question and speak out your answer!,662.7236008644104,None,662.7073783159256,664.7070758342743,"Ich warte seit drei Tagen auf Sie, wo waren Sie denn?",warte,664.0901600599288,None,667.8070930719375,None,679.2913221597671,None,680.6913449764252,681.6914019584656,./data/Subject_05/Session_01/Exp_data/2020_Aug_10_1203/rec_QA_run_03_block_000_trial_006.wav,05,01,Norwegian,A2,True,False,True,False,False,True,True,True,True,True,True,True,No,3,No,No,No,No,2020_Aug_10_1203,nibs_stage_1,3.2.3,60.024786694182,
3,0,3,0,0,0,0,0,7,0,7,0,,,,,,,,,,,,,,,,,,,,,,,,,Listen to the question and speak out your answer!,683.8583669662476,None,683.8420774698257,685.841835975647,Grossbritannien hat die EU verlassen.,verlassen,685.2249202013015,None,688.0751251459121,None,700.4256982088089,None,701.82581782341,702.8258647918701,./data/Subject_05/Session_01/Exp_data/2020_Aug_10_1203/rec_QA_run_03_block_000_trial_007.wav,05,01,Norwegian,A2,True,False,True,False,False,True,True,True,True,True,True,True,No,3,No,No,No,No,2020_Aug_10_1203,nibs_stage_1,3.2.3,60.024786694182,
3,0,3,0,0,0,0,0,8,0,8,0,,,,,,,,,,,,,,,,,,,,,,,,,Listen to the question and speak out your answer!,704.8927597999573,None,704.8761766195297,706.8759889602661,Plastikabfälle werden die Meere verschmutzen.,verschmutzen,706.2593530893325,709.0260968208313,709.4427520513534,710.4429090023041,721.4602021455764,722.4602048397064,722.8602199554443,723.8601849079132,./data/Subject_05/Session_01/Exp_data/2020_Aug_10_1203/rec_QA_run_03_block_000_trial_008.wav,05,01,Norwegian,A2,True,False,True,False,False,True,True,True,True,True,True,True,No,3,No,No,No,No,2020_Aug_10_1203,nibs_stage_1,3.2.3,60.024786694182,
3,0,3,0,0,0,0,0,9,0,9,0,,,,,,,,,,,,,,,,,,,,,,,,,Listen to the question and speak out your answer!,725.9270567893982,None,725.9104967355728,727.9106979370117,"Sie hat Jogurt, Milch, Banana, Brot etc. im Supermarkt eingekauft.",eingekauft,727.2940530061721,None,732.694080042839,None,742.4945930719375,None,743.8946650028229,744.8946659564972,./data/Subject_05/Session_01/Exp_data/2020_Aug_10_1203/rec_QA_run_03_block_000_trial_009.wav,05,01,Norwegian,A2,True,False,True,False,False,True,True,True,True,True,True,True,No,3,No,No,No,No,2020_Aug_10_1203,nibs_stage_1,3.2.3,60.024786694182,
3,0,3,0,0,0,0,0,10,0,10,0,,,,,,,,,,,,,,,,,,,,,,,,,Listen to the question and speak out your answer!,746.9779539108276,None,746.96172478199,748.9615828990936,Ich habe gerade meine Bewerbung bei der Universität eingereicht. ,eingereicht,748.3448940992355,752.1284120082855,752.5284551858902,None,763.5456871271133,764.5623428821564,764.9625058174133,765.9622759819031,./data/Subject_05/Session_01/Exp_data/2020_Aug_10_1203/rec_QA_run_03_block_000_trial_010.wav,05,01,Norwegian,A2,True,False,True,False,False,True,True,True,True,True,True,True,No,3,No,No,No,No,2020_Aug_10_1203,nibs_stage_1,3.2.3,60.024786694182,
3,0,3,0,0,0,0,0,11,0,11,0,,,,,,,,,,,,,,,,,,,,,,,,,Listen to the question and speak out your answer!,768.0293989181519,None,768.0125878095627,770.012503862381,Sam verkauft in diesem Geschäft Herren- und Damenschuhe.,verkauft,769.3960081815719,None,773.1792361021041,None,784.5966111898422,None,785.9966888427734,786.9969367980957,./data/Subject_05/Session_01/Exp_data/2020_Aug_10_1203/rec_QA_run_03_block_000_trial_011.wav,05,01,Norwegian,A2,True,False,True,False,False,True,True,True,True,True,True,True,No,3,No,No,No,No,2020_Aug_10_1203,nibs_stage_1,3.2.3,60.024786694182,
3,0,3,0,0,0,0,0,12,0,12,0,,,,,,,,,,,,,,,,,,,,,,,,,Listen to the question and speak out your answer!,789.0640659332275,None,789.0472486257553,791.0636658668518,"Das sind Wörter, die vor allem junge Leute benutzen.",benutzen,790.4302350759506,None,793.9471771001815,None,805.6477791547775,None,807.0645158290863,None,./data/Subject_05/Session_01/Exp_data/2020_Aug_10_1203/rec_QA_run_03_block_000_trial_012.wav,05,01,Norwegian,A2,True,False,True,False,False,True,True,True,True,True,True,True,No,3,No,No,No,No,2020_Aug_10_1203,nibs_stage_1,3.2.3,60.024786694182,
3,0,3,0,0,0,0,0,13,0,13,0,,,,,,,,,,,,,,,,,,,,,,,,,Listen to the question and speak out your answer!,810.0981760025024,None,810.0815627813339,812.0981049537659,"Die Produkte, die ich bestellt hatte, kamen drei Tage später an.",kamen,811.4814111471176,815.6316440105438,815.9816600561142,None,826.6821610212326,827.6989347934723,828.0988719463348,None,./data/Subject_05/Session_01/Exp_data/2020_Aug_10_1203/rec_QA_run_03_block_000_trial_013.wav,05,01,Norwegian,A2,True,False,True,False,False,True,True,True,True,True,True,True,No,3,No,No,No,No,2020_Aug_10_1203,nibs_stage_1,3.2.3,60.024786694182,
3,0,3,0,0,0,0,0,14,0,14,0,,,,,,,,,,,,,,,,,,,,,,,,,Listen to the question and speak out your answer!,831.1658198833466,None,831.1492326498031,833.1657919883728,Wir leben in dem universalen Weltall.,leben,832.5157682180404,None,835.4494191884994,836.4659798145294,847.7165722131729,None,849.133318901062,None,./data/Subject_05/Session_01/Exp_data/2020_Aug_10_1203/rec_QA_run_03_block_000_trial_014.wav,05,01,Norwegian,A2,True,False,True,False,False,True,True,True,True,True,True,True,No,3,No,No,No,No,2020_Aug_10_1203,nibs_stage_1,3.2.3,60.024786694182,
3,0,3,0,0,0,0,0,15,0,15,0,,,,,,,,,,,,,,,,,,,,,,,,,Listen to the question and speak out your answer!,852.2005288600922,None,852.167027568817,854.2002468109131,Meine kleine Schwester spielt draußen im Garten.,spielt,853.5835351228714,856.6003878116608,856.9836479902267,None,868.7844862222671,None,870.2010908126831,None,./data/Subject_05/Session_01/Exp_data/2020_Aug_10_1203/rec_QA_run_03_block_000_trial_015.wav,05,01,Norwegian,A2,True,False,True,False,False,True,True,True,True,True,True,True,No,3,No,No,No,No,2020_Aug_10_1203,nibs_stage_1,3.2.3,60.024786694182,
3,0,3,0,0,0,0,0,16,0,16,0,,,,,,,,,,,,,,,,,,,,,,,,,Listen to the question and speak out your answer!,873.2348999977112,None,873.21815969944,875.2346940040588,Die Studenten müssen sich für den Kurs anmelden.,anmelden,874.6179861307144,877.4350769519806,877.8181690454483,None,889.8187810659408,890.8356938362122,891.2355659008026,None,./data/Subject_05/Session_01/Exp_data/2020_Aug_10_1203/rec_QA_run_03_block_000_trial_016.wav,05,01,Norwegian,A2,True,False,True,False,False,True,True,True,True,True,True,True,No,3,No,No,No,No,2020_Aug_10_1203,nibs_stage_1,3.2.3,60.024786694182,
3,0,3,0,0,0,0,0,17,0,17,0,,,,,,,,,,,,,,,,,,,,,,,,,Listen to the question and speak out your answer!,894.2529709339142,None,894.2360034942626,896.2524569034576,Die Armbanduhr ist aus rostfreiem Stahl gefertigt und wird nicht rosten.,rosten,895.635762143135,899.9863398075104,900.3693172216415,None,910.836590218544,None,912.2532958984375,None,./data/Subject_05/Session_01/Exp_data/2020_Aug_10_1203/rec_QA_run_03_block_000_trial_017.wav,05,01,Norwegian,A2,True,False,True,False,False,True,True,True,True,True,True,True,No,3,No,No,No,No,2020_Aug_10_1203,nibs_stage_1,3.2.3,60.024786694182,
3,0,3,0,0,0,0,0,18,0,18,0,,,,,,,,,,,,,,,,,,,,,,,,,Listen to the question and speak out your answer!,915.2870328426361,None,915.2703184366226,917.2869989871979,Er entschuldigte sich für seinen Fehler.,entschuldigte,916.6702021837234,None,919.5036980390548,None,931.8710312128067,None,933.287764787674,None,./data/Subject_05/Session_01/Exp_data/2020_Aug_10_1203/rec_QA_run_03_block_000_trial_018.wav,05,01,Norwegian,A2,True,False,True,False,False,True,True,True,True,True,True,True,No,3,No,No,No,No,2020_Aug_10_1203,nibs_stage_1,3.2.3,60.024786694182,
3,0,3,0,0,0,0,0,19,0,19,0,,,,,,,,,,,,,,,,,,,,,,,,,Listen to the question and speak out your answer!,936.3561890125275,None,936.3381247758865,938.3546838760376,Manche Menschen kann mehr Fleisch als Gemüse essen.,essen,937.7379881620407,940.7547948360443,941.1381570577621,None,952.9387640237808,953.9554967880249,954.3554220199585,None,./data/Subject_05/Session_01/Exp_data/2020_Aug_10_1203/rec_QA_run_03_block_000_trial_019.wav,05,01,Norwegian,A2,True,False,True,False,False,True,True,True,True,True,True,True,No,3,No,No,No,No,2020_Aug_10_1203,nibs_stage_1,3.2.3,60.024786694182,
3,0,3,0,0,0,0,0,20,0,20,0,,,,,,,,,,,,,,,,,,,,,,,,,Listen to the question and speak out your answer!,957.4226489067078,None,957.4059176683426,959.4224398136139,Zu Ostern gibt es für Kinder Ostereier und Süßigkeiten.,gibt,958.805732178688,None,962.9393011808395,None,973.9733320951461,None,975.3899788856506,976.4233570098877,./data/Subject_05/Session_01/Exp_data/2020_Aug_10_1203/rec_QA_run_03_block_000_trial_020.wav,05,01,Norwegian,A2,True,False,True,False,False,True,True,True,True,True,True,True,No,3,No,No,No,No,2020_Aug_10_1203,nibs_stage_1,3.2.3,60.024786694182,
3,0,3,0,0,0,0,0,21,0,21,0,,,,,,,,,,,,,,,,,,,,,,,,,Listen to the question and speak out your answer!,978.4734208583832,None,978.4569996356963,980.4735708236694,"Ich war begeistert, als ich das Spiel fast gewonnen hätte.",gewonnen,979.8568591356277,983.4070568084717,983.7904171228408,None,995.0576981782913,None,996.4744248390198,None,./data/Subject_05/Session_01/Exp_data/2020_Aug_10_1203/rec_QA_run_03_block_000_trial_021.wav,05,01,Norwegian,A2,True,False,True,False,False,True,True,True,True,True,True,True,No,3,No,No,No,No,2020_Aug_10_1203,nibs_stage_1,3.2.3,60.024786694182,
3,0,3,0,0,0,0,0,22,0,22,0,,,,,,,,,,,,,,,,,,,,,,,,,Listen to the question and speak out your answer!,999.5412650108337,None,999.5248108148575,1001.5413548946381,Ich lese gerne ein Buch vor dem Schlafengehen.,lese,1000.9246629953384,1003.6748208999634,1004.0581721544265,1005.0748779773712,1016.1254660367965,1017.1421949863434,1017.5423359870911,None,./data/Subject_05/Session_01/Exp_data/2020_Aug_10_1203/rec_QA_run_03_block_000_trial_022.wav,05,01,Norwegian,A2,True,False,True,False,False,True,True,True,True,True,True,True,No,3,No,No,No,No,2020_Aug_10_1203,nibs_stage_1,3.2.3,60.024786694182,
3,0,3,0,0,0,0,0,23,0,23,0,,,,,,,,,,,,,,,,,,,,,,,,,Listen to the question and speak out your answer!,1020.609944820404,None,1020.5925846338272,1022.6091477870941,Der Bau des Gebäudes hat 3 Jahre gedauert und ist endlich fast abgeschlossen.,abgeschlossen,1021.9591001749038,1026.609356880188,1026.9927651166915,None,1037.159929203987,None,1038.576665878296,None,./data/Subject_05/Session_01/Exp_data/2020_Aug_10_1203/rec_QA_run_03_block_000_trial_023.wav,05,01,Norwegian,A2,True,False,True,False,False,True,True,True,True,True,True,True,No,3,No,No,No,No,2020_Aug_10_1203,nibs_stage_1,3.2.3,60.024786694182,
3,0,3,0,0,0,0,0,24,0,24,0,,,,,,,,,,,,,,,,,,,,,,,,,Listen to the question and speak out your answer!,1041.6273829936981,None,1041.6103635787963,1043.6269209384918,In Wien besuchen die Touristen am liebsten den Stephansdom und das Schloss Schönbrunn.,besuchen,1043.0102090120315,None,1048.4438490152359,1049.4605820178986,1058.2112070798873,None,1059.6278328895569,None,./data/Subject_05/Session_01/Exp_data/2020_Aug_10_1203/rec_QA_run_03_block_000_trial_024.wav,05,01,Norwegian,A2,True,False,True,False,False,True,True,True,True,True,True,True,No,3,No,No,No,No,2020_Aug_10_1203,nibs_stage_1,3.2.3,60.024786694182,
3,0,3,0,0,0,0,0,,,,,,,,,,,,,,,,,,1063.6780898571014,None,,,,,,,,,,,,,,,,,,,,,,,,,,05,01,Norwegian,A2,True,False,True,False,False,True,True,True,True,True,True,True,No,3,No,No,No,No,2020_Aug_10_1203,nibs_stage_1,3.2.3,60.024786694182,
3,0,3,0,1,0,1,0,0,0,0,0,,,,,,,,,,,,,,,,,,,,,,,,,Listen to the question and speak out your answer!,1078.978905916214,None,1078.9457827568053,1080.9789979457855,Ihr Regenschirm kann Sie vor dem Regen schützen.,schützen,1080.3623010396957,1083.079137802124,1083.462460207939,None,1095.5630389928817,None,1096.979885816574,None,./data/Subject_05/Session_01/Exp_data/2020_Aug_10_1203/rec_QA_run_03_block_001_trial_000.wav,05,01,Norwegian,A2,True,False,True,False,False,True,True,True,True,True,True,True,No,3,No,No,No,No,2020_Aug_10_1203,nibs_stage_1,3.2.3,60.024786694182,
3,0,3,0,1,0,1,0,1,0,1,0,,,,,,,,,,,,,,,,,,,,,,,,,Listen to the question and speak out your answer!,1100.014634847641,None,1099.9968936681746,1102.013463973999,"Er muss arbeiten, um seine beiden Kinder großzuziehen.",arbeiten,1101.3967479944229,1104.680291891098,1105.0303241491317,None,1116.5975550889968,None,1118.0143070220947,None,./data/Subject_05/Session_01/Exp_data/2020_Aug_10_1203/rec_QA_run_03_block_001_trial_001.wav,05,01,Norwegian,A2,True,False,True,False,False,True,True,True,True,True,True,True,No,3,No,No,No,No,2020_Aug_10_1203,nibs_stage_1,3.2.3,60.024786694182,
3,0,3,0,1,0,1,0,2,0,2,0,,,,,,,,,,,,,,,,,,,,,,,,,Listen to the question and speak out your answer!,1121.0816287994385,None,1121.0481394290923,1123.0812468528748,Er legte das Buch auf den Tisch.,legte,1122.4645501852035,None,1124.8979360342025,None,1137.6653610944747,None,1139.0819668769836,None,./data/Subject_05/Session_01/Exp_data/2020_Aug_10_1203/rec_QA_run_03_block_001_trial_002.wav,05,01,Norwegian,A2,True,False,True,False,False,True,True,True,True,True,True,True,No,3,No,No,No,No,2020_Aug_10_1203,nibs_stage_1,3.2.3,60.024786694182,
3,0,3,0,1,0,1,0,3,0,3,0,,,,,,,,,,,,,,,,,,,,,,,,,Listen to the question and speak out your answer!,1142.1165318489075,None,1142.0990417242049,1144.115634918213,"Wir haben die Preise gesenkt, um neue Kunden zu gewinnen.",gewinnen,1143.4989132165908,None,1147.3991240739822,None,1158.6997319936752,1159.7164618968964,1160.116537809372,None,./data/Subject_05/Session_01/Exp_data/2020_Aug_10_1203/rec_QA_run_03_block_001_trial_003.wav,05,01,Norwegian,A2,True,False,True,False,False,True,True,True,True,True,True,True,No,3,No,No,No,No,2020_Aug_10_1203,nibs_stage_1,3.2.3,60.024786694182,
3,0,3,0,1,0,1,0,4,0,4,0,,,,,,,,,,,,,,,,,,,,,,,,,Listen to the question and speak out your answer!,1163.1834239959717,None,1163.1501844882964,1165.1833407878876,"Seine Freunde können seinen Worten nicht trauen, weil er immer lügt.",lügt,1164.5667030096054,1168.4505689144135,1168.8336211919784,1169.8503289222717,1179.7675282239913,1180.7842299938202,1181.1842558383942,None,./data/Subject_05/Session_01/Exp_data/2020_Aug_10_1203/rec_QA_run_03_block_001_trial_004.wav,05,01,Norwegian,A2,True,False,True,False,False,True,True,True,True,True,True,True,No,3,No,No,No,No,2020_Aug_10_1203,nibs_stage_1,3.2.3,60.024786694182,
3,0,3,0,1,0,1,0,5,0,5,0,,,,,,,,,,,,,,,,,,,,,,,,,Listen to the question and speak out your answer!,1184.2182869911194,None,1184.1847964286803,1186.2179520130157,Der Mond umkreist die Erde in ungefähr achtundzwanzig Tagen.,umkreist,1185.5678190469741,1189.351352930069,1189.7346112012863,None,1200.768621134758,1201.7853829860687,1202.1853868961334,None,./data/Subject_05/Session_01/Exp_data/2020_Aug_10_1203/rec_QA_run_03_block_001_trial_005.wav,05,01,Norwegian,A2,True,False,True,False,False,True,True,True,True,True,True,True,No,3,No,No,No,No,2020_Aug_10_1203,nibs_stage_1,3.2.3,60.024786694182,
3,0,3,0,1,0,1,0,6,0,6,0,,,,,,,,,,,,,,,,,,,,,,,,,Listen to the question and speak out your answer!,1205.2871990203857,None,1205.2690781354904,1207.2858138084412,"Um die Prüfung zu bestehen, hat er viel gelernt.",gelernt,1206.6689461946487,1209.6191148757935,1210.0024501562118,None,1221.8697590112686,None,1223.2866368293762,None,./data/Subject_05/Session_01/Exp_data/2020_Aug_10_1203/rec_QA_run_03_block_001_trial_006.wav,05,01,Norwegian,A2,True,False,True,False,False,True,True,True,True,True,True,True,No,3,No,No,No,No,2020_Aug_10_1203,nibs_stage_1,3.2.3,60.024786694182,
3,0,3,0,1,0,1,0,7,0,7,0,,,,,,,,,,,,,,,,,,,,,,,,,Listen to the question and speak out your answer!,1226.320630788803,None,1226.3035178422926,1228.3201389312744,Das Eingreifen des Lehrers beendete den Kampf  der Schüler.,beendete,1227.7035161733627,None,1231.7035240411758,None,1242.9043401956558,None,1244.3209338188171,None,./data/Subject_05/Session_01/Exp_data/2020_Aug_10_1203/rec_QA_run_03_block_001_trial_007.wav,05,01,Norwegian,A2,True,False,True,False,False,True,True,True,True,True,True,True,No,3,No,No,No,No,2020_Aug_10_1203,nibs_stage_1,3.2.3,60.024786694182,
3,0,3,0,1,0,1,0,8,0,8,0,,,,,,,,,,,,,,,,,,,,,,,,,Listen to the question and speak out your answer!,1247.387990951538,None,1247.3547454833983,1249.3878829479218,Alex duscht morgens gerne im Badezimmer.,duscht,1248.7713481664657,None,1251.7715222120285,None,1263.9720460653305,None,1265.388888835907,None,./data/Subject_05/Session_01/Exp_data/2020_Aug_10_1203/rec_QA_run_03_block_001_trial_008.wav,05,01,Norwegian,A2,True,False,True,False,False,True,True,True,True,True,True,True,No,3,No,No,No,No,2020_Aug_10_1203,nibs_stage_1,3.2.3,60.024786694182,
3,0,3,0,1,0,1,0,9,0,9,0,,,,,,,,,,,,,,,,,,,,,,,,,Listen to the question and speak out your answer!,1268.4395008087158,None,1268.4057557821272,1270.438994884491,Christoph Kolumbus hat am vierzehn zweiundneunzig Amerika entdeckt.,entdeckt,1269.7889670610427,1274.1394770145416,1274.5227181196212,None,1284.9898540258407,1286.0064978599548,1286.4065577983856,None,./data/Subject_05/Session_01/Exp_data/2020_Aug_10_1203/rec_QA_run_03_block_001_trial_009.wav,05,01,Norwegian,A2,True,False,True,False,False,True,True,True,True,True,True,True,No,3,No,No,No,No,2020_Aug_10_1203,nibs_stage_1,3.2.3,60.024786694182,
3,0,3,0,1,0,1,0,10,0,10,0,,,,,,,,,,,,,,,,,,,,,,,,,Listen to the question and speak out your answer!,1289.4734299182892,None,1289.4569006204604,1291.473445892334,Der Läufer hat seine Konkurrenten mühelos geschlagen.,geschlagen,1290.856822180748,1294.0069108009338,1294.3904620885849,None,1306.057572054863,1307.0742859840393,1307.4742968082428,None,./data/Subject_05/Session_01/Exp_data/2020_Aug_10_1203/rec_QA_run_03_block_001_trial_010.wav,05,01,Norwegian,A2,True,False,True,False,False,True,True,True,True,True,True,True,No,3,No,No,No,No,2020_Aug_10_1203,nibs_stage_1,3.2.3,60.024786694182,
3,0,3,0,1,0,1,0,11,0,11,0,,,,,,,,,,,,,,,,,,,,,,,,,Listen to the question and speak out your answer!,1310.5093607902527,None,1310.4913287401198,1312.5079138278961,Ich bin krank und bleibe heute im Bett.,bleibe,1311.8911821126937,1314.308028936386,1314.6913670778274,None,1327.0919791936874,None,1328.5087568759918,None,./data/Subject_05/Session_01/Exp_data/2020_Aug_10_1203/rec_QA_run_03_block_001_trial_011.wav,05,01,Norwegian,A2,True,False,True,False,False,True,True,True,True,True,True,True,No,3,No,No,No,No,2020_Aug_10_1203,nibs_stage_1,3.2.3,60.024786694182,
3,0,3,0,1,0,1,0,12,0,12,0,,,,,,,,,,,,,,,,,,,,,,,,,Listen to the question and speak out your answer!,1331.6760919094086,None,1331.6424738407134,1333.6756978034973,Er kann mit den Händen an einem Baum hängen.,hängen,1333.0589491605758,None,1335.8258392095565,None,1348.2597140550613,None,1349.6765367984772,None,./data/Subject_05/Session_01/Exp_data/2020_Aug_10_1203/rec_QA_run_03_block_001_trial_012.wav,05,01,Norwegian,A2,True,False,True,False,False,True,True,True,True,True,True,True,No,3,No,No,No,No,2020_Aug_10_1203,nibs_stage_1,3.2.3,60.024786694182,
3,0,3,0,1,0,1,0,13,0,13,0,,,,,,,,,,,,,,,,,,,,,,,,,Listen to the question and speak out your answer!,1352.7106628417969,None,1352.676901435852,1354.7101337909698,Ohne das Glas kann ich nicht lesen.,lesen,1354.0934371232986,None,1356.560269999504,1357.576955795288,1369.294215130806,None,1370.7109689712524,None,./data/Subject_05/Session_01/Exp_data/2020_Aug_10_1203/rec_QA_run_03_block_001_trial_013.wav,05,01,Norwegian,A2,True,False,True,False,False,True,True,True,True,True,True,True,No,3,No,No,No,No,2020_Aug_10_1203,nibs_stage_1,3.2.3,60.024786694182,
3,0,3,0,1,0,1,0,14,0,14,0,,,,,,,,,,,,,,,,,,,,,,,,,Listen to the question and speak out your answer!,1373.7462108135223,None,1373.7280256986617,1375.7445828914642,Er wurde zum Leiter der Abteilung befördert.,befördert,1375.1278762102127,None,1378.1613830804824,None,1390.3287111997604,None,1391.7454278469086,None,./data/Subject_05/Session_01/Exp_data/2020_Aug_10_1203/rec_QA_run_03_block_001_trial_014.wav,05,01,Norwegian,A2,True,False,True,False,False,True,True,True,True,True,True,True,No,3,No,No,No,No,2020_Aug_10_1203,nibs_stage_1,3.2.3,60.024786694182,
3,0,3,0,1,0,1,0,15,0,15,0,,,,,,,,,,,,,,,,,,,,,,,,,Listen to the question and speak out your answer!,1394.8290388584137,None,1394.7958047628401,1396.8290379047394,Ich möchte meinen tiefen Dank für seine Hilfe aussprechen.,aussprechen,1396.1790060281753,1399.5291669368744,1399.9457821130752,None,1411.3798071622848,None,1412.796549797058,None,./data/Subject_05/Session_01/Exp_data/2020_Aug_10_1203/rec_QA_run_03_block_001_trial_015.wav,05,01,Norwegian,A2,True,False,True,False,False,True,True,True,True,True,True,True,No,3,No,No,No,No,2020_Aug_10_1203,nibs_stage_1,3.2.3,60.024786694182,
3,0,3,0,1,0,1,0,16,0,16,0,,,,,,,,,,,,,,,,,,,,,,,,,Listen to the question and speak out your answer!,1415.8634748458862,None,1415.8302355766295,1417.863588809967,"Ich werde mich nicht entschuldigen, schließlich habe ich den Streit nicht angefangen.",entschuldigen,1417.2467960596084,None,1422.0470380067825,None,1432.447605061531,1433.4643158912659,1433.8643379211426,None,./data/Subject_05/Session_01/Exp_data/2020_Aug_10_1203/rec_QA_run_03_block_001_trial_016.wav,05,01,Norwegian,A2,True,False,True,False,False,True,True,True,True,True,True,True,No,3,No,No,No,No,2020_Aug_10_1203,nibs_stage_1,3.2.3,60.024786694182,
3,0,3,0,1,0,1,0,17,0,17,0,,,,,,,,,,,,,,,,,,,,,,,,,Listen to the question and speak out your answer!,1436.89848279953,None,1436.864696598053,1438.897924900055,Wir können das Fleisch grillen oder braten.,grillen,1438.2812251329422,None,1441.1480530977249,1442.1647758483887,1453.4820851564407,None,1454.89879488945,None,./data/Subject_05/Session_01/Exp_data/2020_Aug_10_1203/rec_QA_run_03_block_001_trial_017.wav,05,01,Norwegian,A2,True,False,True,False,False,True,True,True,True,True,True,True,No,3,No,No,No,No,2020_Aug_10_1203,nibs_stage_1,3.2.3,60.024786694182,
3,0,3,0,1,0,1,0,18,0,18,0,,,,,,,,,,,,,,,,,,,,,,,,,Listen to the question and speak out your answer!,1457.9490339756012,None,1457.9158156156539,1459.9490540027618,Das Auto hatte die Grenze passiert.,passiert,1459.3323511362075,1461.615839958191,1461.9658262014389,1462.9825367927551,1474.533334183693,None,1475.9499340057373,None,./data/Subject_05/Session_01/Exp_data/2020_Aug_10_1203/rec_QA_run_03_block_001_trial_018.wav,05,01,Norwegian,A2,True,False,True,False,False,True,True,True,True,True,True,True,No,3,No,No,No,No,2020_Aug_10_1203,nibs_stage_1,3.2.3,60.024786694182,
3,0,3,0,1,0,1,0,19,0,19,0,,,,,,,,,,,,,,,,,,,,,,,,,Listen to the question and speak out your answer!,1478.9840128421783,None,1478.9502595424651,1480.9834430217743,Die Katzen jagen Mäuse.,jagen,1480.3668090581893,1482.1836059093475,1482.5336159944534,1483.5503358840942,1495.5676709890365,None,1496.984279870987,None,./data/Subject_05/Session_01/Exp_data/2020_Aug_10_1203/rec_QA_run_03_block_001_trial_019.wav,05,01,Norwegian,A2,True,False,True,False,False,True,True,True,True,True,True,True,No,3,No,No,No,No,2020_Aug_10_1203,nibs_stage_1,3.2.3,60.024786694182,
3,0,3,0,1,0,1,0,20,0,20,0,,,,,,,,,,,,,,,,,,,,,,,,,Listen to the question and speak out your answer!,1500.0350999832153,None,1500.0014298200606,1502.0346689224243,Das Sprachinstitut bietet Kurse für Anfänger an.,bietet,1501.3845531225204,1504.6684448719025,1505.0515720129013,None,1516.6020960092544,None,1518.0187878608704,None,./data/Subject_05/Session_01/Exp_data/2020_Aug_10_1203/rec_QA_run_03_block_001_trial_020.wav,05,01,Norwegian,A2,True,False,True,False,False,True,True,True,True,True,True,True,No,3,No,No,No,No,2020_Aug_10_1203,nibs_stage_1,3.2.3,60.024786694182,
3,0,3,0,1,0,1,0,21,0,21,0,,,,,,,,,,,,,,,,,,,,,,,,,Listen to the question and speak out your answer!,1521.08722281456,None,1521.0693047285079,1523.0857129096985,"Bitte öffnen Sie das Fenster, um frische Luft hereinzulassen.",öffnen,1522.46901409626,None,1526.6025480508804,None,1537.6701070547103,None,1539.086574792862,None,./data/Subject_05/Session_01/Exp_data/2020_Aug_10_1203/rec_QA_run_03_block_001_trial_021.wav,05,01,Norwegian,A2,True,False,True,False,False,True,True,True,True,True,True,True,No,3,No,No,No,No,2020_Aug_10_1203,nibs_stage_1,3.2.3,60.024786694182,
3,0,3,0,1,0,1,0,22,0,22,0,,,,,,,,,,,,,,,,,,,,,,,,,Listen to the question and speak out your answer!,1542.1536378860474,None,1542.1203945636748,1544.153512954712,Tim sammelt Briefmarken und Münzen.,sammelt,1543.536752152443,1545.9869349002838,1546.370303082466,None,1558.7376310110092,None,1560.1543469429016,None,./data/Subject_05/Session_01/Exp_data/2020_Aug_10_1203/rec_QA_run_03_block_001_trial_022.wav,05,01,Norwegian,A2,True,False,True,False,False,True,True,True,True,True,True,True,No,3,No,No,No,No,2020_Aug_10_1203,nibs_stage_1,3.2.3,60.024786694182,
3,0,3,0,1,0,1,0,23,0,23,0,,,,,,,,,,,,,,,,,,,,,,,,,Listen to the question and speak out your answer!,1563.2046020030975,None,1563.1716788053511,1565.2046139240265,Diesen Irrtum musste er teuer bezahlen.,bezahlen,1564.5879141569137,None,1567.3546392202377,None,1579.7887350797653,1580.8053607940674,1581.2054698467255,None,./data/Subject_05/Session_01/Exp_data/2020_Aug_10_1203/rec_QA_run_03_block_001_trial_023.wav,05,01,Norwegian,A2,True,False,True,False,False,True,True,True,True,True,True,True,No,3,No,No,No,No,2020_Aug_10_1203,nibs_stage_1,3.2.3,60.024786694182,
3,0,3,0,1,0,1,0,24,0,24,0,,,,,,,,,,,,,,,,,,,,,,,,,Listen to the question and speak out your answer!,1584.240467786789,None,1584.2224927186965,1586.2393398284912,Die Atmosphäre der Erde besteht aus Luft.,besteht,1585.622408080101,None,1588.789319205284,None,1600.8234500169754,None,1602.2399289608002,None,./data/Subject_05/Session_01/Exp_data/2020_Aug_10_1203/rec_QA_run_03_block_001_trial_024.wav,05,01,Norwegian,A2,True,False,True,False,False,True,True,True,True,True,True,True,No,3,No,No,No,No,2020_Aug_10_1203,nibs_stage_1,3.2.3,60.024786694182,
