run.thisRepN,run.thisTrialN,run.thisN,run.thisIndex,artifact_trial.thisRepN,artifact_trial.thisTrialN,artifact_trial.thisN,artifact_trial.thisIndex,QA_block.thisRepN,QA_block.thisTrialN,QA_block.thisN,QA_block.thisIndex,QA_trial.thisRepN,QA_trial.thisTrialN,QA_trial.thisN,QA_trial.thisIndex,fade_in_text.text,fade_in_text.started,fade_in_text.stopped,Artifact_intro_title.started,Artifact_intro_title.stopped,Artifact_intro_text.text,Artifact_intro_text.started,Artifact_intro_text.stopped,Artifact_intro_audio.started,Artifact_intro_audio.stopped,Artifact_intro_cont.started,Artifact_intro_cont.stopped,Artifact_rec_text.text,Artifact_rec_text.started,Artifact_rec_text.stopped,Artifact_rec_beep_hint.started,Artifact_rec_beep_hint.stopped,Artifact_rec_action.started,Artifact_rec_action.stopped,Artifact_rec_beep_start.started,Artifact_rec_beep_start.stopped,Artifact_rec_recording.started,Artifact_rec_recording.stopped,Artifact_rec_beep_end.started,Artifact_rec_beep_end.stopped,Artifact_rec_break.started,Artifact_rec_break.stopped,RS_intro_title.started,RS_intro_title.stopped,RS_intro_text.text,RS_intro_text.started,RS_intro_text.stopped,RS_intro_audio.started,RS_intro_audio.stopped,RS_rec_text.text,RS_rec_text.started,RS_rec_text.stopped,Pause_cont.started,Pause_cont.stopped,QA_intro_title.started,QA_intro_title.stopped,QA_intro_text.text,QA_intro_text.started,QA_intro_text.stopped,QA_intro_audio.started,QA_intro_audio.stopped,QA_intro_cont.started,QA_intro_cont.stopped,QA_rec_text.text,QA_rec_text.started,QA_rec_text.stopped,QA_rec_beep_hint.started,QA_rec_beep_hint.stopped,QA_rec_question.sen_text,QA_rec_question.cen_text,QA_rec_question.started,QA_rec_question.stopped,QA_rec_beep_start.started,QA_rec_beep_start.stopped,QA_rec_beep_end.started,QA_rec_beep_end.stopped,QA_rec_break.started,QA_rec_break.stopped,filename,fade_out_text.text,fade_out_text.started,fade_out_text.stopped,participant,session,First language,German level,Full_screen,Instruction,Intro,Artifact,Cali_pre,Fade_in_out,Artifact_within,Resting_State,QA,Pause,Cali_post,End,Breakpoint_Cali_pre_trial,Breakpoint_Run,Breakpoint_RS_block,Breakpoint_QA_block,Breakpoint_QA_trial,Breakpoint_Cali_post_trial,date,expName,psychopyVersion,frameRate,
2,0,2,0,0,0,0,0,,,,,,,,,Please remain seated until further instruction via the earphone.,59.26951313018799,None,61.30286693572998,88.30431413650513,"  - Task: Artifacts collection   
  - Please follow audio instruction              
",61.30286693572998,88.30431413650513,61.28914928436279,None,87.67117094993591,None,,90.65451002120972,None,90.64042115211487,92.65456795692444,92.02114224433899,None,95.42131924629211,None,96.82150030136108,106.82198190689087,107.22203922271729,None,108.62202095985413,109.6221559047699,,,,,,,,,,,,,,,,,,,,,,,,,,,,,,,,,,,,,,,,,05,01,Norwegian,B1,True,False,True,False,False,True,True,True,True,True,True,True,No,2,No,No,No,No,2020_Aug_10_1128,nibs_stage_1,3.2.3,59.98589847185772,
2,0,2,0,1,0,1,0,,,,,,,,,,,,,,,,,,,,,,112.67226910591125,None,112.65840315818787,114.67248010635376,114.03905415534973,None,117.43931722640991,118.43923497200012,118.83942723274231,128.8397810459137,129.24006533622742,None,130.63993906974792,131.63998293876648,,,,,,,,,,,,,,,,,,,,,,,,,,,,,,,,,,,,,,,,,05,01,Norwegian,B1,True,False,True,False,False,True,True,True,True,True,True,True,No,2,No,No,No,No,2020_Aug_10_1128,nibs_stage_1,3.2.3,59.98589847185772,
2,0,2,0,2,0,2,0,,,,,,,,,,,,,,,,,,,,,,134.6738350391388,None,134.67626929283142,136.6902630329132,136.05686211585999,None,139.45707416534424,140.4574010372162,140.8572142124176,150.85765314102173,151.2576801776886,None,152.6576509475708,153.65784406661987,,,,,,,,,,,,,,,,,,,,,,,,,,,,,,,,,,,,,,,,,05,01,Norwegian,B1,True,False,True,False,False,True,True,True,True,True,True,True,No,2,No,No,No,No,2020_Aug_10_1128,nibs_stage_1,3.2.3,59.98589847185772,
2,0,2,0,3,0,3,0,,,,,,,,,,,,,,,,,,,,,,156.69106602668762,156.69106602668762,156.67747926712036,158.69137001037598,158.07457613945007,None,161.47468328475952,162.47479510307312,162.87484216690063,172.87525510787964,173.27528429031372,None,174.67534613609314,175.67541313171387,,,,,,,,,,,,,,,,,,,,,,,,,,,,,,,,,,,,,,,,,05,01,Norwegian,B1,True,False,True,False,False,True,True,True,True,True,True,True,No,2,No,No,No,No,2020_Aug_10_1128,nibs_stage_1,3.2.3,59.98589847185772,
2,0,2,0,4,0,4,0,,,,,,,,,,,,,,,,,,,,,,178.6923370361328,None,178.6952121257782,180.7092409133911,180.07588624954224,None,183.47607827186584,None,184.8763222694397,194.87680506706238,195.27646327018738,None,196.67651391029358,197.67656302452087,,,,,,,,,,,,,,,,,,,,,,,,,,,,,,,,,,,,,,,,,05,01,Norwegian,B1,True,False,True,False,False,True,True,True,True,True,True,True,No,2,No,No,No,No,2020_Aug_10_1128,nibs_stage_1,3.2.3,59.98589847185772,
2,0,2,0,5,0,5,0,,,,,,,,,,,,,,,,,,,,,,200.71015906333923,200.71015906333923,200.69615721702576,202.71016001701355,202.09348130226135,None,205.49366331100464,None,206.8937282562256,216.89423298835754,217.27761721611023,None,218.67757511138916,219.67772507667542,,,,,,,,,,,,,,,,,,,,,,,,,,,,,,,,,,,,,,,,,05,01,Norwegian,B1,True,False,True,False,False,True,True,True,True,True,True,True,No,2,No,No,No,No,2020_Aug_10_1128,nibs_stage_1,3.2.3,59.98589847185772,
2,0,2,0,6,0,6,0,,,,,,,,,,,,,,,,,,,,,,222.71177697181702,None,222.7140862941742,224.72800302505493,224.0945692062378,None,227.49482822418213,None,228.89491629600525,238.8953239917755,239.29533314704895,240.29546403884888,240.69547700881958,241.6955931186676,,,,,,,,,,,,,,,,,,,,,,,,,,,,,,,,,,,,,,,,,05,01,Norwegian,B1,True,False,True,False,False,True,True,True,True,True,True,True,No,2,No,No,No,No,2020_Aug_10_1128,nibs_stage_1,3.2.3,59.98589847185772,
2,0,2,0,7,0,7,0,,,,,,,,,,,,,,,,,,,,,,244.72902607917786,244.72902607917786,244.71536922454834,246.72918510437012,246.11245131492615,249.11261010169983,249.51266431808472,None,250.91273522377014,260.91326999664307,261.3132863044739,262.3133120536804,262.71330213546753,263.71336698532104,,,,,,,,,,,,,,,,,,,,,,,,,,,,,,,,,,,,,,,,,05,01,Norwegian,B1,True,False,True,False,False,True,True,True,True,True,True,True,No,2,No,No,No,No,2020_Aug_10_1128,nibs_stage_1,3.2.3,59.98589847185772,
2,0,2,0,8,0,8,0,,,,,,,,,,,,,,,,,,,,,,266.73049807548523,None,266.73303627967834,268.74698400497437,268.1136293411255,271.11376094818115,271.51389718055725,None,272.91387724876404,282.9146149158478,283.31466913223267,None,284.71489000320435,285.7146899700165,,,,,,,,,,,,,,,,,,,,,,,,,,,,,,,,,,,,,,,,,05,01,Norwegian,B1,True,False,True,False,False,True,True,True,True,True,True,True,No,2,No,No,No,No,2020_Aug_10_1128,nibs_stage_1,3.2.3,59.98589847185772,
2,0,2,0,9,0,9,0,,,,,,,,,,,,,,,,,,,,,,288.7482159137726,288.7482159137726,288.7344582080841,290.7483639717102,290.131694316864,293.13179111480713,293.5318863391876,None,294.93203020095825,304.93244314193726,305.33249831199646,306.332524061203,306.7325460910797,307.7326080799103,,,,,,,,,,,,,,,,,,,,,,,,,,,,,,,,,,,,,,,,,05,01,Norwegian,B1,True,False,True,False,False,True,True,True,True,True,True,True,No,2,No,No,No,No,2020_Aug_10_1128,nibs_stage_1,3.2.3,59.98589847185772,
2,0,2,0,10,0,10,0,,,,,,,,,,,,,,,,,,,,,,310.76614809036255,None,310.7522962093353,312.766184091568,312.1328773498535,None,315.53303718566895,None,316.93317914009094,326.93359994888306,327.3336892127991,None,328.7337329387665,329.73378801345825,,,,,,,,,,,,,,,,,,,,,,,,,,,,,,,,,,,,,,,,,05,01,Norwegian,B1,True,False,True,False,False,True,True,True,True,True,True,True,No,2,No,No,No,No,2020_Aug_10_1128,nibs_stage_1,3.2.3,59.98589847185772,
2,0,2,0,11,0,11,0,,,,,,,,,,,,,,,,,,,,,,332.7674560546875,None,332.77018213272095,334.7840919494629,334.1507132053375,None,337.55089116096497,None,338.95090413093567,348.95144510269165,349.35148334503174,None,350.7515330314636,351.75161600112915,,,,,,,,,,,,,,,,,,,,,,,,,,,,,,,,,,,,,,,,,05,01,Norwegian,B1,True,False,True,False,False,True,True,True,True,True,True,True,No,2,No,No,No,No,2020_Aug_10_1128,nibs_stage_1,3.2.3,59.98589847185772,
2,0,2,0,12,0,12,0,,,,,,,,,,,,,,,,,,,,,,354.78497099876404,354.78497099876404,354.77130913734436,356.78519105911255,356.16851019859314,359.16866302490234,359.56868028640747,None,360.96875834465027,370.969172000885,371.3692183494568,None,372.7693500518799,373.76933693885803,,,,,,,,,,,,,,,,,,,,,,,,,,,,,,,,,,,,,,,,,05,01,Norwegian,B1,True,False,True,False,False,True,True,True,True,True,True,True,No,2,No,No,No,No,2020_Aug_10_1128,nibs_stage_1,3.2.3,59.98589847185772,
2,0,2,0,13,0,13,0,,,,,,,,,,,,,,,,,,,,,,376.786612033844,None,376.78909611701965,378.80297803878784,378.1696581840515,None,381.5698473453522,None,382.9699282646179,392.9704329967499,393.3704831600189,None,394.7705180644989,395.7705879211426,,,,,,,,,,,,,,,,,,,,,,,,,,,,,,,,,,,,,,,,,05,01,Norwegian,B1,True,False,True,False,False,True,True,True,True,True,True,True,No,2,No,No,No,No,2020_Aug_10_1128,nibs_stage_1,3.2.3,59.98589847185772,
2,0,2,0,14,0,14,0,,,,,,,,,,,,,,,,,,,,,,398.803915977478,398.803915977478,398.7903211116791,400.8039209842682,400.1873471736908,None,403.58743119239807,None,404.98758816719055,414.98799896240234,415.3880612850189,None,416.78832507133484,417.7881679534912,,,,,,,,,,,,,,,,,,,,,,,,,,,,,,,,,,,,,,,,,05,01,Norwegian,B1,True,False,True,False,False,True,True,True,True,True,True,True,No,2,No,No,No,No,2020_Aug_10_1128,nibs_stage_1,3.2.3,59.98589847185772,
2,0,2,0,,,,,0,0,0,0,0,0,0,0,,,,,,,,,,,,,,,,,,,,,,,,,,,,628.1992700099945,None," - Task: Keep seated and relaxed with either      
             opening or closing eyes                  
 - Beep sound with decreasing pitch: Block finish 
",628.1992700099945,None,628.1856970787048,None,"Please keep relaxed and close your eyes.
",651.2173850536346,831.2266459465027,834.5940999984741,None,850.8613591194153,890.8964579105377," - Task: Listen to the question& Speak out answer 
 - Melodious beep sound: Trial start              
 - Silent sound (blank): censored word            
 - Beep sound with increasing pitch: Rec. start   
 - Beep sound with decreasing pitch: Rec. finish  
",850.8613591194153,890.8964579105377,850.8486287593842,None,890.2297010421753,None,Listen to the question and speak out your answer!,894.2136280536652,None,894.2009348869324,896.213604927063,Ich legte meine Geldbörse auf den Tisch.,legte,895.5970022678375,898.0805361270905,898.4971032142639,None,910.7977483272552,None,912.1978070735931,913.1978371143341,./data/Subject_05/Session_01/Exp_data/2020_Aug_10_1128/rec_QA_run_02_block_000_trial_000.wav,,,,05,01,Norwegian,B1,True,False,True,False,False,True,True,True,True,True,True,True,No,2,No,No,No,No,2020_Aug_10_1128,nibs_stage_1,3.2.3,59.98589847185772,
2,0,2,0,,,,,0,0,0,0,1,0,1,0,,,,,,,,,,,,,,,,,,,,,,,,,,,,,,,,,,,,,,,,,,,,,,,,,Listen to the question and speak out your answer!,915.2487189769745,None,915.2341644763947,917.2480890750885,"Im Sommer brauchen wir ein Moskitonetz, damit wir nicht gestochen werden.",brauchen,916.6313941478729,920.8482670783997,921.2649862766266,922.265191078186,931.8322203159332,932.8322439193726,933.2322359085083,934.2325410842896,./data/Subject_05/Session_01/Exp_data/2020_Aug_10_1128/rec_QA_run_02_block_000_trial_001.wav,,,,05,01,Norwegian,B1,True,False,True,False,False,True,True,True,True,True,True,True,No,2,No,No,No,No,2020_Aug_10_1128,nibs_stage_1,3.2.3,59.98589847185772,
2,0,2,0,,,,,0,0,0,0,2,0,2,0,,,,,,,,,,,,,,,,,,,,,,,,,,,,,,,,,,,,,,,,,,,,,,,,,Listen to the question and speak out your answer!,936.282418012619,None,936.2688684463501,938.2825000286102,Jetzt will ich eine Vorstellung machen.,machen,937.6491513252258,None,940.1826231479645,None,952.8499901294708,None,954.2499759197235,955.250137090683,./data/Subject_05/Session_01/Exp_data/2020_Aug_10_1128/rec_QA_run_02_block_000_trial_002.wav,,,,05,01,Norwegian,B1,True,False,True,False,False,True,True,True,True,True,True,True,No,2,No,No,No,No,2020_Aug_10_1128,nibs_stage_1,3.2.3,59.98589847185772,
2,0,2,0,,,,,0,0,0,0,3,0,3,0,,,,,,,,,,,,,,,,,,,,,,,,,,,,,,,,,,,,,,,,,,,,,,,,,Listen to the question and speak out your answer!,957.3174841403961,None,957.3030683994293,959.3171710968018,Jeden Tag lesen wir die Zeitung.,lesen,958.6836111545563,960.9002630710602,961.3170831203461,None,973.8844311237335,974.8844249248505,975.2844541072845,976.2847759723663,./data/Subject_05/Session_01/Exp_data/2020_Aug_10_1128/rec_QA_run_02_block_000_trial_003.wav,,,,05,01,Norwegian,B1,True,False,True,False,False,True,True,True,True,True,True,True,No,2,No,No,No,No,2020_Aug_10_1128,nibs_stage_1,3.2.3,59.98589847185772,
2,0,2,0,,,,,0,0,0,0,4,0,4,0,,,,,,,,,,,,,,,,,,,,,,,,,,,,,,,,,,,,,,,,,,,,,,,,,Listen to the question and speak out your answer!,978.3510630130768,None,978.3375144004822,980.3515920639038,Der Junge hat das Mädchen zum Kaffee eingeladen.,eingeladen,979.734705209732,None,983.0014762878418,None,994.9355192184448,None,996.3355569839478,997.3356070518494,./data/Subject_05/Session_01/Exp_data/2020_Aug_10_1128/rec_QA_run_02_block_000_trial_004.wav,,,,05,01,Norwegian,B1,True,False,True,False,False,True,True,True,True,True,True,True,No,2,No,No,No,No,2020_Aug_10_1128,nibs_stage_1,3.2.3,59.98589847185772,
2,0,2,0,,,,,0,0,0,0,5,0,5,0,,,,,,,,,,,,,,,,,,,,,,,,,,,,,,,,,,,,,,,,,,,,,,,,,Listen to the question and speak out your answer!,999.3856029510498,None,999.3719344139099,1001.38600897789,"Wir schafften es, das Projekt nach Plan abzuschließen.",schafften,1000.7524981498718,1004.1860771179199,1004.5860502719879,None,1015.9533312320709,1016.9534409046173,1017.3535680770874,1018.3534290790558,./data/Subject_05/Session_01/Exp_data/2020_Aug_10_1128/rec_QA_run_02_block_000_trial_005.wav,,,,05,01,Norwegian,B1,True,False,True,False,False,True,True,True,True,True,True,True,No,2,No,No,No,No,2020_Aug_10_1128,nibs_stage_1,3.2.3,59.98589847185772,
2,0,2,0,,,,,0,0,0,0,6,0,6,0,,,,,,,,,,,,,,,,,,,,,,,,,,,,,,,,,,,,,,,,,,,,,,,,,Listen to the question and speak out your answer!,1020.4201550483704,None,1020.406444311142,1022.4203350543976,Sie redete leise und unverständlich.,redete,1021.7869491577148,1024.437045097351,1024.837116241455,None,1036.9879293441772,None,1038.4045150279999,1039.4044880867004,./data/Subject_05/Session_01/Exp_data/2020_Aug_10_1128/rec_QA_run_02_block_000_trial_006.wav,,,,05,01,Norwegian,B1,True,False,True,False,False,True,True,True,True,True,True,True,No,2,No,No,No,No,2020_Aug_10_1128,nibs_stage_1,3.2.3,59.98589847185772,
2,0,2,0,,,,,0,0,0,0,7,0,7,0,,,,,,,,,,,,,,,,,,,,,,,,,,,,,,,,,,,,,,,,,,,,,,,,,Listen to the question and speak out your answer!,1041.471561908722,None,1041.440815448761,1043.4547219276428,"Das Flugzeug steht kurz vor dem Abflug, wir müssen uns beeilen.",beeilen,1042.8380241394043,None,1047.138271331787,None,1058.0386242866516,1059.0553119182587,1059.4553520679474,None,./data/Subject_05/Session_01/Exp_data/2020_Aug_10_1128/rec_QA_run_02_block_000_trial_007.wav,,,,05,01,Norwegian,B1,True,False,True,False,False,True,True,True,True,True,True,True,No,2,No,No,No,No,2020_Aug_10_1128,nibs_stage_1,3.2.3,59.98589847185772,
2,0,2,0,,,,,0,0,0,0,8,0,8,0,,,,,,,,,,,,,,,,,,,,,,,,,,,,,,,,,,,,,,,,,,,,,,,,,Listen to the question and speak out your answer!,1062.5055210590363,None,1062.4917063713074,1064.538927078247,Morgen werden wir um sieben Uhr aufstehen.,aufstehen,1063.8889253139496,1066.4723570346832,1066.8557312488556,None,1079.089720249176,None,1080.5063591003418,None,./data/Subject_05/Session_01/Exp_data/2020_Aug_10_1128/rec_QA_run_02_block_000_trial_008.wav,,,,05,01,Norwegian,B1,True,False,True,False,False,True,True,True,True,True,True,True,No,2,No,No,No,No,2020_Aug_10_1128,nibs_stage_1,3.2.3,59.98589847185772,
2,0,2,0,,,,,0,0,0,0,9,0,9,0,,,,,,,,,,,,,,,,,,,,,,,,,,,,,,,,,,,,,,,,,,,,,,,,,Listen to the question and speak out your answer!,1083.556962966919,None,1083.542812347412,1085.5901651382446,Der Wirkstoff im Kaffee heißt Koffein.,heißt,1084.9400353431702,None,1087.8735182285309,None,1100.1409132480621,None,1101.5576539039612,None,./data/Subject_05/Session_01/Exp_data/2020_Aug_10_1128/rec_QA_run_02_block_000_trial_009.wav,,,,05,01,Norwegian,B1,True,False,True,False,False,True,True,True,True,True,True,True,No,2,No,No,No,No,2020_Aug_10_1128,nibs_stage_1,3.2.3,59.98589847185772,
2,0,2,0,,,,,0,0,0,0,10,0,10,0,,,,,,,,,,,,,,,,,,,,,,,,,,,,,,,,,,,,,,,,,,,,,,,,,Listen to the question and speak out your answer!,1104.6246449947357,None,1104.594051361084,1106.6244740486145,"Ich muss mich bemühen, das Ziel des Projektes zu erreichen.",erreichen,1106.0078811645508,1109.6247200965881,1110.0081062316895,1111.024789094925,1121.2088191509247,None,1122.6255009174347,None,./data/Subject_05/Session_01/Exp_data/2020_Aug_10_1128/rec_QA_run_02_block_000_trial_010.wav,,,,05,01,Norwegian,B1,True,False,True,False,False,True,True,True,True,True,True,True,No,2,No,No,No,No,2020_Aug_10_1128,nibs_stage_1,3.2.3,59.98589847185772,
2,0,2,0,,,,,0,0,0,0,11,0,11,0,,,,,,,,,,,,,,,,,,,,,,,,,,,,,,,,,,,,,,,,,,,,,,,,,Listen to the question and speak out your answer!,1125.6421661376953,None,1125.6284594535828,1127.675665140152,Mit der Benzin wird der Motor des Autos angetrieben.,angetrieben,1127.0256652832031,None,1130.5258502960205,None,1142.209789276123,None,1143.6263449192047,None,./data/Subject_05/Session_01/Exp_data/2020_Aug_10_1128/rec_QA_run_02_block_000_trial_011.wav,,,,05,01,Norwegian,B1,True,False,True,False,False,True,True,True,True,True,True,True,No,2,No,No,No,No,2020_Aug_10_1128,nibs_stage_1,3.2.3,59.98589847185772,
2,0,2,0,,,,,0,0,0,0,12,0,12,0,,,,,,,,,,,,,,,,,,,,,,,,,,,,,,,,,,,,,,,,,,,,,,,,,Listen to the question and speak out your answer!,1146.693393945694,None,1146.6794965267181,1148.7266869544983,Das Fleisch wurde über dem offenen Feuer gegrillt.,gegrillt,1148.0766661167145,None,1151.4435153007507,None,1163.277467250824,None,1164.6941809654236,None,./data/Subject_05/Session_01/Exp_data/2020_Aug_10_1128/rec_QA_run_02_block_000_trial_012.wav,,,,05,01,Norwegian,B1,True,False,True,False,False,True,True,True,True,True,True,True,No,2,No,No,No,No,2020_Aug_10_1128,nibs_stage_1,3.2.3,59.98589847185772,
2,0,2,0,,,,,0,0,0,0,13,0,13,0,,,,,,,,,,,,,,,,,,,,,,,,,,,,,,,,,,,,,,,,,,,,,,,,,Listen to the question and speak out your answer!,1167.7446110248566,None,1167.7305793762207,1169.7778041362762,"Damit Pflanzen gut wachsen, müssen wir sie mehr Wasser gießen.",gießen,1169.127794265747,1172.7112829685211,1173.0946681499481,None,1184.3285031318665,1185.345304965973,1185.7452881336212,None,./data/Subject_05/Session_01/Exp_data/2020_Aug_10_1128/rec_QA_run_02_block_000_trial_013.wav,,,,05,01,Norwegian,B1,True,False,True,False,False,True,True,True,True,True,True,True,No,2,No,No,No,No,2020_Aug_10_1128,nibs_stage_1,3.2.3,59.98589847185772,
2,0,2,0,,,,,0,0,0,0,14,0,14,0,,,,,,,,,,,,,,,,,,,,,,,,,,,,,,,,,,,,,,,,,,,,,,,,,Listen to the question and speak out your answer!,1188.81241106987,None,1188.7982904911041,1190.8456780910492,Die Absolventen feiern ihren erfolgreichen Abschluss an der Universität.,feiern,1190.1955833435059,1194.7124381065369,1195.0958061218262,None,1205.3963661193848,1206.413057088852,1206.7797601222992,1207.813097000122,./data/Subject_05/Session_01/Exp_data/2020_Aug_10_1128/rec_QA_run_02_block_000_trial_014.wav,,,,05,01,Norwegian,B1,True,False,True,False,False,True,True,True,True,True,True,True,No,2,No,No,No,No,2020_Aug_10_1128,nibs_stage_1,3.2.3,59.98589847185772,
2,0,2,0,,,,,0,0,0,0,15,0,15,0,,,,,,,,,,,,,,,,,,,,,,,,,,,,,,,,,,,,,,,,,,,,,,,,,Listen to the question and speak out your answer!,1209.8636801242828,None,1209.8494243621826,1211.8966889381409,Die Wassermelone schmeckt sehr süß.,schmeckt,1211.2466943264008,None,1214.0802612304688,None,1226.4474701881409,None,1227.8641910552979,None,./data/Subject_05/Session_01/Exp_data/2020_Aug_10_1128/rec_QA_run_02_block_000_trial_015.wav,,,,05,01,Norwegian,B1,True,False,True,False,False,True,True,True,True,True,True,True,No,2,No,No,No,No,2020_Aug_10_1128,nibs_stage_1,3.2.3,59.98589847185772,
2,0,2,0,,,,,0,0,0,0,16,0,16,0,,,,,,,,,,,,,,,,,,,,,,,,,,,,,,,,,,,,,,,,,,,,,,,,,Listen to the question and speak out your answer!,1230.914654970169,None,1230.9005794525146,1232.947783946991,Das iPhone wurde von Kalifornien entworfen und in China hergestellt. ,hergestellt,1232.2977831363678,1236.7148809432983,1237.0980212688446,None,1247.4985792636871,None,1248.9152300357819,None,./data/Subject_05/Session_01/Exp_data/2020_Aug_10_1128/rec_QA_run_02_block_000_trial_016.wav,,,,05,01,Norwegian,B1,True,False,True,False,False,True,True,True,True,True,True,True,No,2,No,No,No,No,2020_Aug_10_1128,nibs_stage_1,3.2.3,59.98589847185772,
2,0,2,0,,,,,0,0,0,0,17,0,17,0,,,,,,,,,,,,,,,,,,,,,,,,,,,,,,,,,,,,,,,,,,,,,,,,,Listen to the question and speak out your answer!,1251.9823999404907,None,1251.9516654014587,1253.9823470115662,Sie müssen vorsichtig die Anleitung für Elektrogeräte lesen.,lesen,1253.3655462265015,None,1257.599097251892,None,1268.5663242340088,None,1269.9830539226532,None,./data/Subject_05/Session_01/Exp_data/2020_Aug_10_1128/rec_QA_run_02_block_000_trial_017.wav,,,,05,01,Norwegian,B1,True,False,True,False,False,True,True,True,True,True,True,True,No,2,No,No,No,No,2020_Aug_10_1128,nibs_stage_1,3.2.3,59.98589847185772,
2,0,2,0,,,,,0,0,0,0,18,0,18,0,,,,,,,,,,,,,,,,,,,,,,,,,,,,,,,,,,,,,,,,,,,,,,,,,Listen to the question and speak out your answer!,1273.0007169246674,None,1272.98610329628,1275.0333449840546,"Da hier nur sehr wenige Parkplätze sind, nur Anwohner dürfen in dieser Straße parken.",parken,1274.3834261894226,None,1279.9502291679382,None,1289.5842072963715,None,1291.0008389949799,None,./data/Subject_05/Session_01/Exp_data/2020_Aug_10_1128/rec_QA_run_02_block_000_trial_018.wav,,,,05,01,Norwegian,B1,True,False,True,False,False,True,True,True,True,True,True,True,No,2,No,No,No,No,2020_Aug_10_1128,nibs_stage_1,3.2.3,59.98589847185772,
2,0,2,0,,,,,0,0,0,0,19,0,19,0,,,,,,,,,,,,,,,,,,,,,,,,,,,,,,,,,,,,,,,,,,,,,,,,,Listen to the question and speak out your answer!,1294.051913022995,None,1294.0372133255005,1296.0844449996948,Ich muss mein Versprechen halten.,halten,1295.4344153404236,1297.3845160007477,1297.7678773403168,None,1310.6352243423462,None,1312.0520260334015,None,./data/Subject_05/Session_01/Exp_data/2020_Aug_10_1128/rec_QA_run_02_block_000_trial_019.wav,,,,05,01,Norwegian,B1,True,False,True,False,False,True,True,True,True,True,True,True,No,2,No,No,No,No,2020_Aug_10_1128,nibs_stage_1,3.2.3,59.98589847185772,
2,0,2,0,,,,,0,0,0,0,20,0,20,0,,,,,,,,,,,,,,,,,,,,,,,,,,,,,,,,,,,,,,,,,,,,,,,,,Listen to the question and speak out your answer!,1315.1192910671234,None,1315.0883464813232,1317.1195919513702,"Manchmal glaube ich, ich bin zu pessimistisch.",glaube,1316.5021901130676,None,1319.869047164917,None,1331.6696491241455,None,1333.086385011673,None,./data/Subject_05/Session_01/Exp_data/2020_Aug_10_1128/rec_QA_run_02_block_000_trial_020.wav,,,,05,01,Norwegian,B1,True,False,True,False,False,True,True,True,True,True,True,True,No,2,No,No,No,No,2020_Aug_10_1128,nibs_stage_1,3.2.3,59.98589847185772,
2,0,2,0,,,,,0,0,0,0,21,0,21,0,,,,,,,,,,,,,,,,,,,,,,,,,,,,,,,,,,,,,,,,,,,,,,,,,Listen to the question and speak out your answer!,1336.1533241271973,None,1336.122765302658,1338.1534249782562,Er ist durch die ganze Welt gereist.,gereist,1337.5033011436462,1339.5867540836334,1339.9701471328735,None,1352.7041432857513,None,1354.120847940445,None,./data/Subject_05/Session_01/Exp_data/2020_Aug_10_1128/rec_QA_run_02_block_000_trial_021.wav,,,,05,01,Norwegian,B1,True,False,True,False,False,True,True,True,True,True,True,True,No,2,No,No,No,No,2020_Aug_10_1128,nibs_stage_1,3.2.3,59.98589847185772,
2,0,2,0,,,,,0,0,0,0,22,0,22,0,,,,,,,,,,,,,,,,,,,,,,,,,,,,,,,,,,,,,,,,,,,,,,,,,Listen to the question and speak out your answer!,1357.1877400875092,None,1357.1571974754333,1359.1877601146698,Sie beantwortete meine E-Mail schnell.,beantwortete,1358.5710921287537,1361.0211780071259,1361.371208190918,1362.387906074524,1373.7718842029572,None,1375.18865609169,None,./data/Subject_05/Session_01/Exp_data/2020_Aug_10_1128/rec_QA_run_02_block_000_trial_022.wav,,,,05,01,Norwegian,B1,True,False,True,False,False,True,True,True,True,True,True,True,No,2,No,No,No,No,2020_Aug_10_1128,nibs_stage_1,3.2.3,59.98589847185772,
2,0,2,0,,,,,0,0,0,0,23,0,23,0,,,,,,,,,,,,,,,,,,,,,,,,,,,,,,,,,,,,,,,,,,,,,,,,,Listen to the question and speak out your answer!,1378.2227129936218,None,1378.1917474269867,1380.2221081256866,Dieser Bus bringt dich zum Strand.,bringt,1379.5721831321716,None,1382.005654335022,None,1394.7896602153778,None,1396.2063851356506,None,./data/Subject_05/Session_01/Exp_data/2020_Aug_10_1128/rec_QA_run_02_block_000_trial_023.wav,,,,05,01,Norwegian,B1,True,False,True,False,False,True,True,True,True,True,True,True,No,2,No,No,No,No,2020_Aug_10_1128,nibs_stage_1,3.2.3,59.98589847185772,
2,0,2,0,,,,,0,0,0,0,24,0,24,0,,,,,,,,,,,,,,,,,,,,,,,,,,,,,,,,,,,,,,,,,,,,,,,,,Listen to the question and speak out your answer!,1399.273813009262,None,1399.2427632808685,1401.2733130455017,Können Sie die Kleidung des Täters beschreiben?,beschreiben,1400.6567301750183,None,1403.5234541893005,1404.5400500297546,1415.8574452400208,None,1417.2742171287537,None,./data/Subject_05/Session_01/Exp_data/2020_Aug_10_1128/rec_QA_run_02_block_000_trial_024.wav,,,,05,01,Norwegian,B1,True,False,True,False,False,True,True,True,True,True,True,True,No,2,No,No,No,No,2020_Aug_10_1128,nibs_stage_1,3.2.3,59.98589847185772,
2,0,2,0,,,,,0,0,0,0,,,,,,,,,,,,,,,,,,,,,,,,,,,,,,,,,,,,,,,,,,1421.2910571098328,None,,,,,,,,,,,,,,,,,,,,,,,,,,,,,05,01,Norwegian,B1,True,False,True,False,False,True,True,True,True,True,True,True,No,2,No,No,No,No,2020_Aug_10_1128,nibs_stage_1,3.2.3,59.98589847185772,
2,0,2,0,,,,,1,0,1,0,0,0,0,0,,,,,,,,,,,,,,,,,,,,,,,,,,,,,,,,,,,,,,,,,,,,,,,,,Listen to the question and speak out your answer!,1436.4918971061707,None,1436.4627685546875,1438.4919221401215,Die alte Zimmerdecke muss man renovieren.,renovieren,1437.8419263362885,1440.3252930641174,1440.7419753074646,1441.7587559223175,1453.0427253246307,None,1454.4594430923462,None,./data/Subject_05/Session_01/Exp_data/2020_Aug_10_1128/rec_QA_run_02_block_001_trial_000.wav,,,,05,01,Norwegian,B1,True,False,True,False,False,True,True,True,True,True,True,True,No,2,No,No,No,No,2020_Aug_10_1128,nibs_stage_1,3.2.3,59.98589847185772,
2,0,2,0,,,,,1,0,1,0,1,0,1,0,,,,,,,,,,,,,,,,,,,,,,,,,,,,,,,,,,,,,,,,,,,,,,,,,Listen to the question and speak out your answer!,1457.543627023697,None,1457.5125136375427,1459.5430269241333,Moni hat eine Fahrkarte für den Zug nach Salzburg gekauft.,gekauft,1458.8930261135101,None,1463.059902191162,None,1474.0939061641693,1475.110503911972,1475.5105249881744,None,./data/Subject_05/Session_01/Exp_data/2020_Aug_10_1128/rec_QA_run_02_block_001_trial_001.wav,,,,05,01,Norwegian,B1,True,False,True,False,False,True,True,True,True,True,True,True,No,2,No,No,No,No,2020_Aug_10_1128,nibs_stage_1,3.2.3,59.98589847185772,
2,0,2,0,,,,,1,0,1,0,2,0,2,0,,,,,,,,,,,,,,,,,,,,,,,,,,,,,,,,,,,,,,,,,,,,,,,,,Listen to the question and speak out your answer!,1478.5774719715118,None,1478.5469074249268,1480.5774610042572,Ferdinand Magellan hat als Erster die Welt umsegelt.,umsegelt,1479.9607923030853,None,1483.7276611328125,None,1495.128654241562,None,1496.5784990787506,None,./data/Subject_05/Session_01/Exp_data/2020_Aug_10_1128/rec_QA_run_02_block_001_trial_002.wav,,,,05,01,Norwegian,B1,True,False,True,False,False,True,True,True,True,True,True,True,No,2,No,No,No,No,2020_Aug_10_1128,nibs_stage_1,3.2.3,59.98589847185772,
2,0,2,0,,,,,1,0,1,0,3,0,3,0,,,,,,,,,,,,,,,,,,,,,,,,,,,,,,,,,,,,,,,,,,,,,,,,,Listen to the question and speak out your answer!,1499.6120479106903,None,1499.5813603401184,1501.6121799945831,Vater trinkt morgens eine Tasse Kaffee.,trinkt,1500.9619343280792,None,1503.9621002674103,1504.978754043579,1516.1627552509308,None,1517.5794079303741,None,./data/Subject_05/Session_01/Exp_data/2020_Aug_10_1128/rec_QA_run_02_block_001_trial_003.wav,,,,05,01,Norwegian,B1,True,False,True,False,False,True,True,True,True,True,True,True,No,2,No,No,No,No,2020_Aug_10_1128,nibs_stage_1,3.2.3,59.98589847185772,
2,0,2,0,,,,,1,0,1,0,4,0,4,0,,,,,,,,,,,,,,,,,,,,,,,,,,,,,,,,,,,,,,,,,,,,,,,,,Listen to the question and speak out your answer!,1520.6463479995728,None,1520.6157972812653,1522.6463589668274,Manche Politiker wollen den Frieden auf Erden sichern.,sichern,1521.996350288391,None,1525.629857301712,None,1537.213799238205,None,1538.6305289268494,None,./data/Subject_05/Session_01/Exp_data/2020_Aug_10_1128/rec_QA_run_02_block_001_trial_004.wav,,,,05,01,Norwegian,B1,True,False,True,False,False,True,True,True,True,True,True,True,No,2,No,No,No,No,2020_Aug_10_1128,nibs_stage_1,3.2.3,59.98589847185772,
2,0,2,0,,,,,1,0,1,0,5,0,5,0,,,,,,,,,,,,,,,,,,,,,,,,,,,,,,,,,,,,,,,,,,,,,,,,,Listen to the question and speak out your answer!,1541.6973559856415,None,1541.666909456253,1543.6974499225616,Lange dünne Nudeln nennt man Spaghetti.,nennt,1543.0807793140411,None,1545.914273262024,None,1558.2815852165222,None,1559.6983399391174,None,./data/Subject_05/Session_01/Exp_data/2020_Aug_10_1128/rec_QA_run_02_block_001_trial_005.wav,,,,05,01,Norwegian,B1,True,False,True,False,False,True,True,True,True,True,True,True,No,2,No,No,No,No,2020_Aug_10_1128,nibs_stage_1,3.2.3,59.98589847185772,
2,0,2,0,,,,,1,0,1,0,6,0,6,0,,,,,,,,,,,,,,,,,,,,,,,,,,,,,,,,,,,,,,,,,,,,,,,,,Listen to the question and speak out your answer!,1562.7335050106049,None,1562.701339483261,1564.7318949699402,"Der Arzt wollte ihm verwehren, seinen Vater zu besuchen.",besuchen,1564.1152102947235,1567.665405035019,1568.0488662719727,None,1579.3160381317139,1580.3329219818115,1580.7326591014862,None,./data/Subject_05/Session_01/Exp_data/2020_Aug_10_1128/rec_QA_run_02_block_001_trial_006.wav,,,,05,01,Norwegian,B1,True,False,True,False,False,True,True,True,True,True,True,True,No,2,No,No,No,No,2020_Aug_10_1128,nibs_stage_1,3.2.3,59.98589847185772,
2,0,2,0,,,,,1,0,1,0,7,0,7,0,,,,,,,,,,,,,,,,,,,,,,,,,,,,,,,,,,,,,,,,,,,,,,,,,Listen to the question and speak out your answer!,1583.7666130065918,None,1583.7358043193817,1585.7664639949799,Beim Bäcker gibt es täglich frisches Brot.,gibt,1585.1496651172638,None,1588.1498401165009,None,1600.3504593372345,None,1601.7671999931335,None,./data/Subject_05/Session_01/Exp_data/2020_Aug_10_1128/rec_QA_run_02_block_001_trial_007.wav,,,,05,01,Norwegian,B1,True,False,True,False,False,True,True,True,True,True,True,True,No,2,No,No,No,No,2020_Aug_10_1128,nibs_stage_1,3.2.3,59.98589847185772,
2,0,2,0,,,,,1,0,1,0,8,0,8,0,,,,,,,,,,,,,,,,,,,,,,,,,,,,,,,,,,,,,,,,,,,,,,,,,Listen to the question and speak out your answer!,1604.78462600708,None,1604.7535362243652,1606.7841339111328,"Um eine Kreditkarte zu bewerben, muss man älter als 18 werden. ",bewerben,1606.134122133255,None,1610.6010253429413,None,1621.3349041938782,None,1622.7515940666199,None,./data/Subject_05/Session_01/Exp_data/2020_Aug_10_1128/rec_QA_run_02_block_001_trial_008.wav,,,,05,01,Norwegian,B1,True,False,True,False,False,True,True,True,True,True,True,True,No,2,No,No,No,No,2020_Aug_10_1128,nibs_stage_1,3.2.3,59.98589847185772,
2,0,2,0,,,,,1,0,1,0,9,0,9,0,,,,,,,,,,,,,,,,,,,,,,,,,,,,,,,,,,,,,,,,,,,,,,,,,Listen to the question and speak out your answer!,1625.820039987564,None,1625.8046646118164,1627.851800918579,"Um den Sachverhalt zu erklären, fehlten ihm die treffenden Vokabeln.",erklären,1627.2018673419952,1631.4187319278717,1631.7688901424408,None,1642.4029521942139,None,1643.819440126419,None,./data/Subject_05/Session_01/Exp_data/2020_Aug_10_1128/rec_QA_run_02_block_001_trial_009.wav,,,,05,01,Norwegian,B1,True,False,True,False,False,True,True,True,True,True,True,True,No,2,No,No,No,No,2020_Aug_10_1128,nibs_stage_1,3.2.3,59.98589847185772,
2,0,2,0,,,,,1,0,1,0,10,0,10,0,,,,,,,,,,,,,,,,,,,,,,,,,,,,,,,,,,,,,,,,,,,,,,,,,Listen to the question and speak out your answer!,1646.8868460655212,None,1646.8559403419495,1648.8863179683685,"Keine Sorge, du wirst für diesen Fehler nicht die Schuld tragen.",tragen,1648.2363092899323,None,1652.3032002449036,None,1663.4371361732483,None,1664.8538370132446,None,./data/Subject_05/Session_01/Exp_data/2020_Aug_10_1128/rec_QA_run_02_block_001_trial_010.wav,,,,05,01,Norwegian,B1,True,False,True,False,False,True,True,True,True,True,True,True,No,2,No,No,No,No,2020_Aug_10_1128,nibs_stage_1,3.2.3,59.98589847185772,
2,0,2,0,,,,,1,0,1,0,11,0,11,0,,,,,,,,,,,,,,,,,,,,,,,,,,,,,,,,,,,,,,,,,,,,,,,,,Listen to the question and speak out your answer!,1667.9207639694214,None,1667.890224456787,1669.9207739830017,Die Eltern haben das Geburtstagsgeschenk ihrer Tochter eingepackt.,eingepackt,1669.3040931224823,1673.2545011043549,1673.6376411914825,None,1684.471535205841,None,1685.8884460926056,None,./data/Subject_05/Session_01/Exp_data/2020_Aug_10_1128/rec_QA_run_02_block_001_trial_011.wav,,,,05,01,Norwegian,B1,True,False,True,False,False,True,True,True,True,True,True,True,No,2,No,No,No,No,2020_Aug_10_1128,nibs_stage_1,3.2.3,59.98589847185772,
2,0,2,0,,,,,1,0,1,0,12,0,12,0,,,,,,,,,,,,,,,,,,,,,,,,,,,,,,,,,,,,,,,,,,,,,,,,,Listen to the question and speak out your answer!,1688.9560360908508,None,1688.9246444702148,1690.9552109241486,Die Touristen besichtigten alle Sehenswürdigkeiten der Stadt.,besichtigten,1690.3384311199188,1694.088730096817,1694.4720711708069,None,1705.539401292801,None,1706.9560301303864,None,./data/Subject_05/Session_01/Exp_data/2020_Aug_10_1128/rec_QA_run_02_block_001_trial_012.wav,,,,05,01,Norwegian,B1,True,False,True,False,False,True,True,True,True,True,True,True,No,2,No,No,No,No,2020_Aug_10_1128,nibs_stage_1,3.2.3,59.98589847185772,
2,0,2,0,,,,,1,0,1,0,13,0,13,0,,,,,,,,,,,,,,,,,,,,,,,,,,,,,,,,,,,,,,,,,,,,,,,,,Listen to the question and speak out your answer!,1709.989671945572,None,1709.959094285965,1711.9897079467773,Ich musste für meinen Vortrag eine Menge Informationen sammeln.,sammeln,1711.372977256775,None,1715.5731892585754,None,1726.5737702846527,None,1727.9904780387878,None,./data/Subject_05/Session_01/Exp_data/2020_Aug_10_1128/rec_QA_run_02_block_001_trial_013.wav,,,,05,01,Norwegian,B1,True,False,True,False,False,True,True,True,True,True,True,True,No,2,No,No,No,No,2020_Aug_10_1128,nibs_stage_1,3.2.3,59.98589847185772,
2,0,2,0,,,,,1,0,1,0,14,0,14,0,,,,,,,,,,,,,,,,,,,,,,,,,,,,,,,,,,,,,,,,,,,,,,,,,Listen to the question and speak out your answer!,1731.007766008377,None,1730.9935534000397,1733.0407280921936,Die Medien und Reporter sollten die Wahrheit berichten.,berichten,1732.390742301941,1735.5076360702515,1735.8909211158752,1736.9075210094452,1747.591545343399,1748.6082239151,1749.0083029270172,None,./data/Subject_05/Session_01/Exp_data/2020_Aug_10_1128/rec_QA_run_02_block_001_trial_014.wav,,,,05,01,Norwegian,B1,True,False,True,False,False,True,True,True,True,True,True,True,No,2,No,No,No,No,2020_Aug_10_1128,nibs_stage_1,3.2.3,59.98589847185772,
2,0,2,0,,,,,1,0,1,0,15,0,15,0,,,,,,,,,,,,,,,,,,,,,,,,,,,,,,,,,,,,,,,,,,,,,,,,,Listen to the question and speak out your answer!,1752.0767540931702,None,1752.044640302658,1754.07519698143,"Um den Bus noch zu erwischen, musste ich heute Morgen sehr schnell laufen.",laufen,1753.4585292339325,None,1757.9254403114319,1758.9420969486237,1768.6592991352081,1769.6759870052338,1770.0760180950165,None,./data/Subject_05/Session_01/Exp_data/2020_Aug_10_1128/rec_QA_run_02_block_001_trial_015.wav,,,,05,01,Norwegian,B1,True,False,True,False,False,True,True,True,True,True,True,True,No,2,No,No,No,No,2020_Aug_10_1128,nibs_stage_1,3.2.3,59.98589847185772,
2,0,2,0,,,,,1,0,1,0,16,0,16,0,,,,,,,,,,,,,,,,,,,,,,,,,,,,,,,,,,,,,,,,,,,,,,,,,Listen to the question and speak out your answer!,1773.1104271411896,None,1773.0960276126862,1775.1429779529572,In der Arktis leben gefährliche Eisbären.,leben,1774.4929473400116,None,1777.7264552116394,None,1789.6937463283539,None,1791.1104619503021,None,./data/Subject_05/Session_01/Exp_data/2020_Aug_10_1128/rec_QA_run_02_block_001_trial_016.wav,,,,05,01,Norwegian,B1,True,False,True,False,False,True,True,True,True,True,True,True,No,2,No,No,No,No,2020_Aug_10_1128,nibs_stage_1,3.2.3,59.98589847185772,
2,0,2,0,,,,,1,0,1,0,17,0,17,0,,,,,,,,,,,,,,,,,,,,,,,,,,,,,,,,,,,,,,,,,,,,,,,,,Listen to the question and speak out your answer!,1794.1788210868835,None,1794.1468563079834,1796.1774339675903,Ich gratuliere dir zum Abschluss mit höchster Auszeichnung. ,gratuliere,1795.5607192516327,None,1799.460931301117,1800.4776270389557,1810.7615382671356,None,1812.1782839298248,None,./data/Subject_05/Session_01/Exp_data/2020_Aug_10_1128/rec_QA_run_02_block_001_trial_017.wav,,,,05,01,Norwegian,B1,True,False,True,False,False,True,True,True,True,True,True,True,No,2,No,No,No,No,2020_Aug_10_1128,nibs_stage_1,3.2.3,59.98589847185772,
2,0,2,0,,,,,1,0,1,0,18,0,18,0,,,,,,,,,,,,,,,,,,,,,,,,,,,,,,,,,,,,,,,,,,,,,,,,,Listen to the question and speak out your answer!,1815.212261915207,None,1815.1812853813171,1817.211942911148,Ich kümmere mich nicht um die Reden der Leute.,kümmere,1816.5951611995697,None,1819.495331287384,None,1831.795879125595,None,1833.2126789093018,None,./data/Subject_05/Session_01/Exp_data/2020_Aug_10_1128/rec_QA_run_02_block_001_trial_018.wav,,,,05,01,Norwegian,B1,True,False,True,False,False,True,True,True,True,True,True,True,No,2,No,No,No,No,2020_Aug_10_1128,nibs_stage_1,3.2.3,59.98589847185772,
2,0,2,0,,,,,1,0,1,0,19,0,19,0,,,,,,,,,,,,,,,,,,,,,,,,,,,,,,,,,,,,,,,,,,,,,,,,,Listen to the question and speak out your answer!,1836.2478909492493,None,1836.232432603836,1838.2799150943756,Die zwei Männer bewerben sich um einen gleichen Arbeitsplatz.,bewerben,1837.6299233436584,1841.346442937851,1841.7298221588135,None,1852.7970583438873,1853.8137860298157,1854.2137961387634,1855.24715590477,./data/Subject_05/Session_01/Exp_data/2020_Aug_10_1128/rec_QA_run_02_block_001_trial_019.wav,,,,05,01,Norwegian,B1,True,False,True,False,False,True,True,True,True,True,True,True,No,2,No,No,No,No,2020_Aug_10_1128,nibs_stage_1,3.2.3,59.98589847185772,
2,0,2,0,,,,,1,0,1,0,20,0,20,0,,,,,,,,,,,,,,,,,,,,,,,,,,,,,,,,,,,,,,,,,,,,,,,,,Listen to the question and speak out your answer!,1857.3312330245972,None,1857.3001744747162,1859.3308329582214,"Bitte reservieren Sie einen Platz, bevor Sie ins Restaurant gehen.",reservieren,1858.6807081699371,1862.7308790683746,1863.114291191101,None,1873.8815231323242,1874.8982059955597,1875.298236131668,None,./data/Subject_05/Session_01/Exp_data/2020_Aug_10_1128/rec_QA_run_02_block_001_trial_020.wav,,,,05,01,Norwegian,B1,True,False,True,False,False,True,True,True,True,True,True,True,No,2,No,No,No,No,2020_Aug_10_1128,nibs_stage_1,3.2.3,59.98589847185772,
2,0,2,0,,,,,1,0,1,0,21,0,21,0,,,,,,,,,,,,,,,,,,,,,,,,,,,,,,,,,,,,,,,,,,,,,,,,,Listen to the question and speak out your answer!,1878.3651330471039,None,1878.3346064090729,1880.3651700019836,Kann ich mich um das Stipendium bewerben?,bewerben,1879.7484903335571,None,1882.4151983261108,None,1894.9492971897125,1895.966140985489,1896.3659510612488,None,./data/Subject_05/Session_01/Exp_data/2020_Aug_10_1128/rec_QA_run_02_block_001_trial_021.wav,,,,05,01,Norwegian,B1,True,False,True,False,False,True,True,True,True,True,True,True,No,2,No,No,No,No,2020_Aug_10_1128,nibs_stage_1,3.2.3,59.98589847185772,
2,0,2,0,,,,,1,0,1,0,22,0,22,0,,,,,,,,,,,,,,,,,,,,,,,,,,,,,,,,,,,,,,,,,,,,,,,,,Listen to the question and speak out your answer!,1899.3997490406036,None,1899.369181394577,1901.3995940685272,In der Küche steht noch das schumutzige Geschirr vom Frühstück.,steht,1900.7831151485443,None,1904.716462135315,None,1915.9837272167206,None,1917.4004619121552,None,./data/Subject_05/Session_01/Exp_data/2020_Aug_10_1128/rec_QA_run_02_block_001_trial_022.wav,,,,05,01,Norwegian,B1,True,False,True,False,False,True,True,True,True,True,True,True,No,2,No,No,No,No,2020_Aug_10_1128,nibs_stage_1,3.2.3,59.98589847185772,
2,0,2,0,,,,,1,0,1,0,23,0,23,0,,,,,,,,,,,,,,,,,,,,,,,,,,,,,,,,,,,,,,,,,,,,,,,,,Listen to the question and speak out your answer!,1920.4177079200745,None,1920.403490304947,1922.450707912445,Sam trinkt gerne eine Tasse Kaffee mit einem Stück Kuchen,trinkt,1921.8006973266602,None,1925.7341451644897,None,1936.9681742191315,None,1938.3848631381989,1939.4182679653168,./data/Subject_05/Session_01/Exp_data/2020_Aug_10_1128/rec_QA_run_02_block_001_trial_023.wav,,,,05,01,Norwegian,B1,True,False,True,False,False,True,True,True,True,True,True,True,No,2,No,No,No,No,2020_Aug_10_1128,nibs_stage_1,3.2.3,59.98589847185772,
2,0,2,0,,,,,1,0,1,0,24,0,24,0,,,,,,,,,,,,,,,,,,,,,,,,,,,,,,,,,,,,,,,,,,,,,,,,,Listen to the question and speak out your answer!,1941.4859490394592,None,1941.4545953273773,1943.4851610660553,In wenigen Minuten erreichen wir Hamburg.,erreichen,1942.868480205536,None,1946.0686433315277,None,1958.0692763328552,None,1959.485997915268,None,./data/Subject_05/Session_01/Exp_data/2020_Aug_10_1128/rec_QA_run_02_block_001_trial_024.wav,,,,05,01,Norwegian,B1,True,False,True,False,False,True,True,True,True,True,True,True,No,2,No,No,No,No,2020_Aug_10_1128,nibs_stage_1,3.2.3,59.98589847185772,
2,0,2,0,,,,,1,0,1,0,,,,,,,,,,,,,,,,,,,,,,,,,,,,,,,,,,,,,,,,,,1963.502984046936,None,,,,,,,,,,,,,,,,,,,,,,,,,,,,,05,01,Norwegian,B1,True,False,True,False,False,True,True,True,True,True,True,True,No,2,No,No,No,No,2020_Aug_10_1128,nibs_stage_1,3.2.3,59.98589847185772,
2,0,2,0,,,,,,,,,,,,,,,,,,,,,,,,,,,,,,,,,,,,,,,,,,,,,,,,,,,,,,,,,,,,,,,,,,,,,,,,,,,,,Please remain seated until further instruction via the earphone.,59.26951313018799,None,05,01,Norwegian,B1,True,False,True,False,False,True,True,True,True,True,True,True,No,2,No,No,No,No,2020_Aug_10_1128,nibs_stage_1,3.2.3,59.98589847185772,
