run.thisRepN,run.thisTrialN,run.thisN,run.thisIndex,QA_block.thisRepN,QA_block.thisTrialN,QA_block.thisN,QA_block.thisIndex,QA_trial.thisRepN,QA_trial.thisTrialN,QA_trial.thisN,QA_trial.thisIndex,fade_in_text.text,fade_in_text.started,fade_in_text.stopped,RS_intro_title.started,RS_intro_title.stopped,RS_intro_text.text,RS_intro_text.started,RS_intro_text.stopped,RS_intro_audio.started,RS_intro_audio.stopped,RS_rec_text.text,RS_rec_text.started,RS_rec_text.stopped,Pause_cont.started,Pause_cont.stopped,QA_intro_title.started,QA_intro_title.stopped,QA_intro_text.text,QA_intro_text.started,QA_intro_text.stopped,QA_intro_audio.started,QA_intro_audio.stopped,QA_intro_cont.started,QA_intro_cont.stopped,QA_rec_text.text,QA_rec_text.started,QA_rec_text.stopped,QA_rec_beep_hint.started,QA_rec_beep_hint.stopped,QA_rec_question.sen_text,QA_rec_question.cen_text,QA_rec_question.started,QA_rec_question.stopped,QA_rec_beep_start.started,QA_rec_beep_start.stopped,QA_rec_beep_end.started,QA_rec_beep_end.stopped,QA_rec_break.started,QA_rec_break.stopped,filename,participant,session,First language,German level,Full_screen,Instruction,Intro,Artifact,Cali_pre,Fade_in_out,Artifact_within,Resting_State,QA,Pause,Cali_post,End,Breakpoint_Cali_pre_trial,Breakpoint_Run,Breakpoint_RS_block,Breakpoint_QA_block,Breakpoint_QA_trial,Breakpoint_Cali_post_trial,date,expName,psychopyVersion,frameRate,
1,0,1,0,0,0,0,0,0,0,0,0,Please remain seated until further instruction via the earphone.,57.15994310379028,None,267.62093114852905,None," - Task: Keep seated and relaxed with either      
             opening or closing eyes                  
 - Beep sound with decreasing pitch: Block finish 
",267.62093114852905,None,267.62088603973393,None,"Please keep relaxed and open your eyes.
Note: Blinking is allowed.",290.63904309272766,470.64838910102844,474.04867911338806,None,489.0326609611511,529.0513260364532," - Task: Listen to the question& Speak out answer 
 - Melodious beep sound: Trial start              
 - Silent sound (blank): censored word            
 - Beep sound with increasing pitch: Rec. start   
 - Beep sound with decreasing pitch: Rec. finish  
",489.0326609611511,529.0513260364532,489.0154704809189,None,528.4179649353027,None,Listen to the question and speak out your answer!,533.3184340000153,None,533.3011280775071,535.3021950721741,Wie feiern die Deutschen Weihnachten?,feiern,534.68520424366,536.8519871234894,537.268819308281,None,549.8859863042832,None,551.2860629558563,552.2861111164093,./data/Subject_05/Session_01/Exp_data/2020_Aug_10_1059/rec_QA_run_01_block_000_trial_000.wav,05,01,Norwegian,B1,True,False,True,False,False,True,True,True,True,True,True,True,No,1,No,No,No,No,2020_Aug_10_1059,nibs_stage_1,3.2.3,59.999198924269734,
1,0,1,0,0,0,0,0,1,0,1,0,,,,,,,,,,,,,,,,,,,,,,,,,Listen to the question and speak out your answer!,554.3696439266205,None,554.3526040792466,556.3529920578003,"Ob die bereitgestellte Information korrekt ist, müssen wir prüfen.",prüfen,555.7363192796707,None,560.2365631818772,561.2368450164795,570.9370772600174,None,572.3373370170593,573.3372340202332,./data/Subject_05/Session_01/Exp_data/2020_Aug_10_1059/rec_QA_run_01_block_000_trial_001.wav,05,01,Norwegian,B1,True,False,True,False,False,True,True,True,True,True,True,True,No,1,No,No,No,No,2020_Aug_10_1059,nibs_stage_1,3.2.3,59.999198924269734,
1,0,1,0,0,0,0,0,2,0,2,0,,,,,,,,,,,,,,,,,,,,,,,,,Listen to the question and speak out your answer!,575.4037759304047,None,575.3870470046998,577.3872120380402,Das Bild kann mir die Uhrzeitangabe verstehen helfen.,helfen,576.7871823072434,None,580.3374411821366,None,591.9881021738053,592.9882640838623,593.3882751464844,594.3883879184723,./data/Subject_05/Session_01/Exp_data/2020_Aug_10_1059/rec_QA_run_01_block_000_trial_002.wav,05,01,Norwegian,B1,True,False,True,False,False,True,True,True,True,True,True,True,No,1,No,No,No,No,2020_Aug_10_1059,nibs_stage_1,3.2.3,59.999198924269734,
1,0,1,0,0,0,0,0,3,0,3,0,,,,,,,,,,,,,,,,,,,,,,,,,Listen to the question and speak out your answer!,596.4384050369263,None,596.4215418815613,598.4217350482941,Das Eingreifen des Lehrers beendete den Streit.,beendete,597.8216411828995,600.9051089286804,601.3051383256912,None,613.0227093458176,None,614.4226109981537,615.4227421283722,./data/Subject_05/Session_01/Exp_data/2020_Aug_10_1059/rec_QA_run_01_block_000_trial_003.wav,05,01,Norwegian,B1,True,False,True,False,False,True,True,True,True,True,True,True,No,1,No,No,No,No,2020_Aug_10_1059,nibs_stage_1,3.2.3,59.999198924269734,
1,0,1,0,0,0,0,0,4,0,4,0,,,,,,,,,,,,,,,,,,,,,,,,,Listen to the question and speak out your answer!,617.4738430976868,None,617.47256128788,619.4729709625244,Die Anlage arbeitet vollautomatisch.,arbeitet,618.8561892271042,None,621.7897891759873,None,634.0570671319962,None,635.4571499824524,636.4574339389801,./data/Subject_05/Session_01/Exp_data/2020_Aug_10_1059/rec_QA_run_01_block_000_trial_004.wav,05,01,Norwegian,B1,True,False,True,False,False,True,True,True,True,True,True,True,No,1,No,No,No,No,2020_Aug_10_1059,nibs_stage_1,3.2.3,59.999198924269734,
1,0,1,0,0,0,0,0,5,0,5,0,,,,,,,,,,,,,,,,,,,,,,,,,Listen to the question and speak out your answer!,638.5242159366608,None,638.5072530984879,640.5074090957642,"Ihm ist jedes Mittel recht, um sein Ziel zu erreichen.",erreichen,639.8907031774521,643.1575500965118,643.5742711782456,None,655.0914892911911,None,656.4915630817413,657.4920089244843,./data/Subject_05/Session_01/Exp_data/2020_Aug_10_1059/rec_QA_run_01_block_000_trial_005.wav,05,01,Norwegian,B1,True,False,True,False,False,True,True,True,True,True,True,True,No,1,No,No,No,No,2020_Aug_10_1059,nibs_stage_1,3.2.3,59.999198924269734,
1,0,1,0,0,0,0,0,6,0,6,0,,,,,,,,,,,,,,,,,,,,,,,,,Listen to the question and speak out your answer!,659.5752289295197,None,659.5584573030472,661.5584950447083,"Ich wusste die Antwort nicht, also musste ich raten.",raten,660.9420351743698,None,664.3919992208481,None,676.1426043272019,None,677.5426161289215,678.542741060257,./data/Subject_05/Session_01/Exp_data/2020_Aug_10_1059/rec_QA_run_01_block_000_trial_006.wav,05,01,Norwegian,B1,True,False,True,False,False,True,True,True,True,True,True,True,No,1,No,No,No,No,2020_Aug_10_1059,nibs_stage_1,3.2.3,59.999198924269734,
1,0,1,0,0,0,0,0,7,0,7,0,,,,,,,,,,,,,,,,,,,,,,,,,Listen to the question and speak out your answer!,680.6260709762573,None,680.6093441724778,682.609512090683,"Deine Haare sind so kurz, warst du beim Friseur?",warst,682.009370303154,685.0929400920868,685.4928753137589,None,697.2101721525192,698.2101681232452,698.6101870536804,699.6103119850159,./data/Subject_05/Session_01/Exp_data/2020_Aug_10_1059/rec_QA_run_01_block_000_trial_007.wav,05,01,Norwegian,B1,True,False,True,False,False,True,True,True,True,True,True,True,No,1,No,No,No,No,2020_Aug_10_1059,nibs_stage_1,3.2.3,59.999198924269734,
1,0,1,0,0,0,0,0,8,0,8,0,,,,,,,,,,,,,,,,,,,,,,,,,Listen to the question and speak out your answer!,701.661080121994,None,701.6601311445237,703.660539150238,Er konnte auf alle Fragen des Quiz antworten.,antworten,703.0272791147232,705.7606630325317,706.1773531198502,None,718.2280022859574,None,719.6281020641327,720.6283600330353,./data/Subject_05/Session_01/Exp_data/2020_Aug_10_1059/rec_QA_run_01_block_000_trial_008.wav,05,01,Norwegian,B1,True,False,True,False,False,True,True,True,True,True,True,True,No,1,No,No,No,No,2020_Aug_10_1059,nibs_stage_1,3.2.3,59.999198924269734,
1,0,1,0,0,0,0,0,9,0,9,0,,,,,,,,,,,,,,,,,,,,,,,,,Listen to the question and speak out your answer!,722.7115530967712,None,722.6946892023087,724.6949961185455,Man wird damit bargeldlos bezahlen können.,bezahlen,724.0782203435898,None,727.0952491521836,None,739.2791232824326,740.2790961265564,740.6791141033173,741.6792569160461,./data/Subject_05/Session_01/Exp_data/2020_Aug_10_1059/rec_QA_run_01_block_000_trial_009.wav,05,01,Norwegian,B1,True,False,True,False,False,True,True,True,True,True,True,True,No,1,No,No,No,No,2020_Aug_10_1059,nibs_stage_1,3.2.3,59.999198924269734,
1,0,1,0,0,0,0,0,10,0,10,0,,,,,,,,,,,,,,,,,,,,,,,,,Listen to the question and speak out your answer!,743.7460911273956,None,743.72916097641,745.7295269966125,Alle Schüler müssen die Vorschrift halten.,halten,745.1127602815628,747.512876033783,747.9295673131943,None,760.3135852575302,None,761.713837146759,762.7136981487274,./data/Subject_05/Session_01/Exp_data/2020_Aug_10_1059/rec_QA_run_01_block_000_trial_010.wav,05,01,Norwegian,B1,True,False,True,False,False,True,True,True,True,True,True,True,No,1,No,No,No,No,2020_Aug_10_1059,nibs_stage_1,3.2.3,59.999198924269734,
1,0,1,0,0,0,0,0,11,0,11,0,,,,,,,,,,,,,,,,,,,,,,,,,Listen to the question and speak out your answer!,764.7812371253967,None,764.7802831411362,766.7805781364441,Josi hat letzte Nacht nur wenig Schlaf gefunden.,gefunden,766.147148346901,769.1475360393524,769.5639962911606,770.5641279220581,781.3480243444443,782.3492031097412,782.7481369972229,783.7482459545135,./data/Subject_05/Session_01/Exp_data/2020_Aug_10_1059/rec_QA_run_01_block_000_trial_011.wav,05,01,Norwegian,B1,True,False,True,False,False,True,True,True,True,True,True,True,No,1,No,No,No,No,2020_Aug_10_1059,nibs_stage_1,3.2.3,59.999198924269734,
1,0,1,0,0,0,0,0,12,0,12,0,,,,,,,,,,,,,,,,,,,,,,,,,Listen to the question and speak out your answer!,785.8152980804443,None,785.8147942304612,787.8149769306183,Sam hat gerade das Abitur bestanden und wird sich für die Universität Wien bewerben. ,bewerben,787.198362326622,792.3153021335602,792.7319912672043,None,802.3997962236405,803.399512052536,803.799497127533,804.7996590137482,./data/Subject_05/Session_01/Exp_data/2020_Aug_10_1059/rec_QA_run_01_block_000_trial_012.wav,05,01,Norwegian,B1,True,False,True,False,False,True,True,True,True,True,True,True,No,1,No,No,No,No,2020_Aug_10_1059,nibs_stage_1,3.2.3,59.999198924269734,
1,0,1,0,0,0,0,0,13,0,13,0,,,,,,,,,,,,,,,,,,,,,,,,,Listen to the question and speak out your answer!,806.8664309978485,None,806.849478173256,808.8663489818573,"Nachdem mein erster Versuch gescheitert war, probierte ich es noch einmal.",probierte,808.2332463026047,812.3165109157562,812.7331921815872,813.7334189414978,823.434066271782,None,824.8339741230011,825.8339791297913,./data/Subject_05/Session_01/Exp_data/2020_Aug_10_1059/rec_QA_run_01_block_000_trial_013.wav,05,01,Norwegian,B1,True,False,True,False,False,True,True,True,True,True,True,True,No,1,No,No,No,No,2020_Aug_10_1059,nibs_stage_1,3.2.3,59.999198924269734,
1,0,1,0,0,0,0,0,14,0,14,0,,,,,,,,,,,,,,,,,,,,,,,,,Listen to the question and speak out your answer!,827.9175550937653,None,827.9004792451859,829.9175469875336,Der Hotelier buchte zwei Übernachtungen für uns,buchte,829.2841622591019,832.5676641464233,832.9844131231308,833.9843389987946,844.4849853277207,None,845.8850331306458,846.885087966919,./data/Subject_05/Session_01/Exp_data/2020_Aug_10_1059/rec_QA_run_01_block_000_trial_014.wav,05,01,Norwegian,B1,True,False,True,False,False,True,True,True,True,True,True,True,No,1,No,No,No,No,2020_Aug_10_1059,nibs_stage_1,3.2.3,59.999198924269734,
1,0,1,0,0,0,0,0,15,0,15,0,,,,,,,,,,,,,,,,,,,,,,,,,Listen to the question and speak out your answer!,848.9687769412994,None,848.9515892744065,850.9519150257111,Sein Versprechen klingt glaubwürdig.,klingt,850.3352982759476,None,853.0187661409378,854.0188360214233,865.5526213407517,866.5527639389038,866.9530811309814,None,./data/Subject_05/Session_01/Exp_data/2020_Aug_10_1059/rec_QA_run_01_block_000_trial_015.wav,05,01,Norwegian,B1,True,False,True,False,False,True,True,True,True,True,True,True,No,1,No,No,No,No,2020_Aug_10_1059,nibs_stage_1,3.2.3,59.999198924269734,
1,0,1,0,0,0,0,0,16,0,16,0,,,,,,,,,,,,,,,,,,,,,,,,,Listen to the question and speak out your answer!,870.0030930042267,None,869.9860390901566,871.9865169525146,Die meisten Jugendlichen hören gerne Musik.,hören,871.3531253099442,874.1532130241394,874.5698971509934,None,886.5539612531662,887.5541520118713,887.9539170265198,888.9540259838104,./data/Subject_05/Session_01/Exp_data/2020_Aug_10_1059/rec_QA_run_01_block_000_trial_016.wav,05,01,Norwegian,B1,True,False,True,False,False,True,True,True,True,True,True,True,No,1,No,No,No,No,2020_Aug_10_1059,nibs_stage_1,3.2.3,59.999198924269734,
1,0,1,0,0,0,0,0,17,0,17,0,,,,,,,,,,,,,,,,,,,,,,,,,Listen to the question and speak out your answer!,891.037780046463,None,891.0205022573472,893.0373771190643,Mein Vater arbeitet in einer Papierfabrik.,arbeitet,892.420964217186,895.2543449401855,895.6543822050095,None,907.621673321724,908.6386411190033,909.0219531059265,910.0217261314392,./data/Subject_05/Session_01/Exp_data/2020_Aug_10_1059/rec_QA_run_01_block_000_trial_017.wav,05,01,Norwegian,B1,True,False,True,False,False,True,True,True,True,True,True,True,No,1,No,No,No,No,2020_Aug_10_1059,nibs_stage_1,3.2.3,59.999198924269734,
1,0,1,0,0,0,0,0,18,0,18,0,,,,,,,,,,,,,,,,,,,,,,,,,Listen to the question and speak out your answer!,912.0892169475555,None,912.071545290947,914.0720729827881,"Dem Patienten geht es viel besser, so dass der Arzt ihm das Rauchen erlaubte.",erlaubte,913.4552392721176,918.0225479602814,918.4056591749192,None,928.656400179863,None,930.0894169807434,None,./data/Subject_05/Session_01/Exp_data/2020_Aug_10_1059/rec_QA_run_01_block_000_trial_018.wav,05,01,Norwegian,B1,True,False,True,False,False,True,True,True,True,True,True,True,No,1,No,No,No,No,2020_Aug_10_1059,nibs_stage_1,3.2.3,59.999198924269734,
1,0,1,0,0,0,0,0,19,0,19,0,,,,,,,,,,,,,,,,,,,,,,,,,Listen to the question and speak out your answer!,933.1396539211273,None,933.1229342699052,935.1231520175934,"Diese Dame ist US-Bürgerin, wurde aber in Deutschland geboren.",geboren,934.5064761400223,938.5402159690857,938.9400801420212,None,949.7238182783127,None,951.1075520515442,952.1074090003967,./data/Subject_05/Session_01/Exp_data/2020_Aug_10_1059/rec_QA_run_01_block_000_trial_019.wav,05,01,Norwegian,B1,True,False,True,False,False,True,True,True,True,True,True,True,No,1,No,No,No,No,2020_Aug_10_1059,nibs_stage_1,3.2.3,59.999198924269734,
1,0,1,0,0,0,0,0,20,0,20,0,,,,,,,,,,,,,,,,,,,,,,,,,Listen to the question and speak out your answer!,954.1739389896393,None,954.1572310447693,956.1576211452484,Bei dem Gewitter letzte Woche hat der Blitz in ein Boot eingeschlagen.,eingeschlagen,955.5573053121567,959.3247640132904,959.7245323419571,None,970.7420012712479,None,972.1417949199677,973.1418330669403,./data/Subject_05/Session_01/Exp_data/2020_Aug_10_1059/rec_QA_run_01_block_000_trial_020.wav,05,01,Norwegian,B1,True,False,True,False,False,True,True,True,True,True,True,True,No,1,No,No,No,No,2020_Aug_10_1059,nibs_stage_1,3.2.3,59.999198924269734,
1,0,1,0,0,0,0,0,21,0,21,0,,,,,,,,,,,,,,,,,,,,,,,,,Listen to the question and speak out your answer!,975.2084059715271,None,975.1915909767151,977.1920440196991,Ihre Freundlichkeit gab mir ein Gefühl von Sicherheit.,gab,976.5922581911087,979.7922949790955,980.1922182798386,None,991.7761893033982,None,993.1761770248413,994.1763200759888,./data/Subject_05/Session_01/Exp_data/2020_Aug_10_1059/rec_QA_run_01_block_000_trial_021.wav,05,01,Norwegian,B1,True,False,True,False,False,True,True,True,True,True,True,True,No,1,No,No,No,No,2020_Aug_10_1059,nibs_stage_1,3.2.3,59.999198924269734,
1,0,1,0,0,0,0,0,22,0,22,0,,,,,,,,,,,,,,,,,,,,,,,,,Listen to the question and speak out your answer!,996.2774419784546,None,996.2595853090287,998.2597770690918,"Wenn das Klima immer wärmer wird, werden auch die Gletscher schmelzen.",schmelzen,997.6431672334671,1001.410031080246,1001.8098511457443,None,1012.8441431283951,None,1014.244087934494,1015.2443430423737,./data/Subject_05/Session_01/Exp_data/2020_Aug_10_1059/rec_QA_run_01_block_000_trial_022.wav,05,01,Norwegian,B1,True,False,True,False,False,True,True,True,True,True,True,True,No,1,No,No,No,No,2020_Aug_10_1059,nibs_stage_1,3.2.3,59.999198924269734,
1,0,1,0,0,0,0,0,23,0,23,0,,,,,,,,,,,,,,,,,,,,,,,,,Listen to the question and speak out your answer!,1017.327320098877,None,1017.2939059257508,1019.2941091060638,Du kannst auf meine Unterstützung rechnen.,rechnen,1018.6939773321152,None,1021.4776203393936,1022.4775969982147,1033.8948101758956,None,1035.294981956482,1036.2949719429016,./data/Subject_05/Session_01/Exp_data/2020_Aug_10_1059/rec_QA_run_01_block_000_trial_023.wav,05,01,Norwegian,B1,True,False,True,False,False,True,True,True,True,True,True,True,No,1,No,No,No,No,2020_Aug_10_1059,nibs_stage_1,3.2.3,59.999198924269734,
1,0,1,0,0,0,0,0,24,0,24,0,,,,,,,,,,,,,,,,,,,,,,,,,Listen to the question and speak out your answer!,1038.3617911338806,None,1038.3447911024093,1040.3452911376953,Das Radio informiert Autofahrer über Staus.,informiert,1039.7286052465438,1042.8454699516296,1043.2620362997054,None,1054.9294111490249,None,1056.3460719585419,None,./data/Subject_05/Session_01/Exp_data/2020_Aug_10_1059/rec_QA_run_01_block_000_trial_024.wav,05,01,Norwegian,B1,True,False,True,False,False,True,True,True,True,True,True,True,No,1,No,No,No,No,2020_Aug_10_1059,nibs_stage_1,3.2.3,59.999198924269734,
1,0,1,0,0,0,0,0,,,,,,,,,,,,,,,,,,1060.3963830471039,None,,,,,,,,,,,,,,,,,,,,,,,,,,05,01,Norwegian,B1,True,False,True,False,False,True,True,True,True,True,True,True,No,1,No,No,No,No,2020_Aug_10_1059,nibs_stage_1,3.2.3,59.999198924269734,
1,0,1,0,1,0,1,0,0,0,0,0,,,,,,,,,,,,,,,,,,,,,,,,,Listen to the question and speak out your answer!,1076.9473159313202,None,1076.930066037178,1078.9472770690918,"Ein Flüchtling ist jemand , der aus Not seine Heimat verlässt.",verlässt,1078.330578303337,1081.9474511146545,1082.3307852506637,None,1093.5313181638717,None,1094.9481129646301,None,./data/Subject_05/Session_01/Exp_data/2020_Aug_10_1059/rec_QA_run_01_block_001_trial_000.wav,05,01,Norwegian,B1,True,False,True,False,False,True,True,True,True,True,True,True,No,1,No,No,No,No,2020_Aug_10_1059,nibs_stage_1,3.2.3,59.999198924269734,
1,0,1,0,1,0,1,0,1,0,1,0,,,,,,,,,,,,,,,,,,,,,,,,,Listen to the question and speak out your answer!,1098.015877008438,None,1097.9981822252273,1100.0150439739227,Das Friedensabkommen hat den Krieg beendet.,beendet,1099.3982572317123,None,1102.3318512201308,None,1114.5991611242293,None,1116.0159471035004,None,./data/Subject_05/Session_01/Exp_data/2020_Aug_10_1059/rec_QA_run_01_block_001_trial_001.wav,05,01,Norwegian,B1,True,False,True,False,False,True,True,True,True,True,True,True,No,1,No,No,No,No,2020_Aug_10_1059,nibs_stage_1,3.2.3,59.999198924269734,
1,0,1,0,1,0,1,0,2,0,2,0,,,,,,,,,,,,,,,,,,,,,,,,,Listen to the question and speak out your answer!,1119.0830450057983,None,1119.0657972574234,1121.0828530788422,Ich habe mich dieses Semester für einen sehr einfachen Kurs angemeldet.,angemeldet,1120.4661581277846,None,1124.9663903474807,1125.9831149578094,1135.6669492483138,None,1137.0837061405182,None,./data/Subject_05/Session_01/Exp_data/2020_Aug_10_1059/rec_QA_run_01_block_001_trial_002.wav,05,01,Norwegian,B1,True,False,True,False,False,True,True,True,True,True,True,True,No,1,No,No,No,No,2020_Aug_10_1059,nibs_stage_1,3.2.3,59.999198924269734,
1,0,1,0,1,0,1,0,3,0,3,0,,,,,,,,,,,,,,,,,,,,,,,,,Listen to the question and speak out your answer!,1140.1179270744324,None,1140.1002210855484,1142.1174099445343,Das Brot vom Bäcker schmeckt viel besser.,schmeckt,1141.5006153345107,1144.0174379348755,1144.4007482290267,None,1156.7014252901076,1157.718239068985,1158.1181421279907,None,./data/Subject_05/Session_01/Exp_data/2020_Aug_10_1059/rec_QA_run_01_block_001_trial_003.wav,05,01,Norwegian,B1,True,False,True,False,False,True,True,True,True,True,True,True,No,1,No,No,No,No,2020_Aug_10_1059,nibs_stage_1,3.2.3,59.999198924269734,
1,0,1,0,1,0,1,0,4,0,4,0,,,,,,,,,,,,,,,,,,,,,,,,,Listen to the question and speak out your answer!,1161.2017359733582,None,1161.168052124977,1163.20174908638,"Wir werden später bestellen, denn es fehlen noch einige Gäste.",fehlen,1162.5850322008132,1166.4019050598145,1166.7519311666488,None,1177.769302344322,None,1179.1859600543976,None,./data/Subject_05/Session_01/Exp_data/2020_Aug_10_1059/rec_QA_run_01_block_001_trial_004.wav,05,01,Norwegian,B1,True,False,True,False,False,True,True,True,True,True,True,True,No,1,No,No,No,No,2020_Aug_10_1059,nibs_stage_1,3.2.3,59.999198924269734,
1,0,1,0,1,0,1,0,5,0,5,0,,,,,,,,,,,,,,,,,,,,,,,,,Listen to the question and speak out your answer!,1182.2531070709229,None,1182.235867190361,1184.2528619766235,Der Arbeiter repariert eine Panne.,repariert,1183.6361763238906,1185.9529521465302,1186.3363082170486,None,1198.8370761632918,None,1200.2537260055542,None,./data/Subject_05/Session_01/Exp_data/2020_Aug_10_1059/rec_QA_run_01_block_001_trial_005.wav,05,01,Norwegian,B1,True,False,True,False,False,True,True,True,True,True,True,True,No,1,No,No,No,No,2020_Aug_10_1059,nibs_stage_1,3.2.3,59.999198924269734,
1,0,1,0,1,0,1,0,6,0,6,0,,,,,,,,,,,,,,,,,,,,,,,,,Listen to the question and speak out your answer!,1203.3214800357819,None,1203.303592133522,1205.3206689357758,Mit dem Rezept kann man die Medizin in der Apotheke kaufen.,kaufen,1204.7039232015609,None,1208.7375211477279,None,1219.9047512769698,None,1221.3215460777283,None,./data/Subject_05/Session_01/Exp_data/2020_Aug_10_1059/rec_QA_run_01_block_001_trial_006.wav,05,01,Norwegian,B1,True,False,True,False,False,True,True,True,True,True,True,True,No,1,No,No,No,No,2020_Aug_10_1059,nibs_stage_1,3.2.3,59.999198924269734,
1,0,1,0,1,0,1,0,7,0,7,0,,,,,,,,,,,,,,,,,,,,,,,,,Listen to the question and speak out your answer!,1224.3889269828796,None,1224.3547009944914,1226.3884329795837,Meine Oma hat mir Frühstück gekocht.,gekocht,1225.7719683408736,None,1228.371853327751,1229.388687133789,1240.9725851774215,None,1242.389298915863,None,./data/Subject_05/Session_01/Exp_data/2020_Aug_10_1059/rec_QA_run_01_block_001_trial_007.wav,05,01,Norwegian,B1,True,False,True,False,False,True,True,True,True,True,True,True,No,1,No,No,No,No,2020_Aug_10_1059,nibs_stage_1,3.2.3,59.999198924269734,
1,0,1,0,1,0,1,0,8,0,8,0,,,,,,,,,,,,,,,,,,,,,,,,,Listen to the question and speak out your answer!,1245.406753063202,None,1245.372410750389,1247.4062111377716,"Ich habe dieses Fach als mein Hauptfach gewählt, weil es mich interessiert.",interessiert,1246.7561802625655,None,1251.4230992555617,None,1261.956992125511,None,1263.3737530708313,None,./data/Subject_05/Session_01/Exp_data/2020_Aug_10_1059/rec_QA_run_01_block_001_trial_008.wav,05,01,Norwegian,B1,True,False,True,False,False,True,True,True,True,True,True,True,No,1,No,No,No,No,2020_Aug_10_1059,nibs_stage_1,3.2.3,59.999198924269734,
1,0,1,0,1,0,1,0,9,0,9,0,,,,,,,,,,,,,,,,,,,,,,,,,Listen to the question and speak out your answer!,1266.4244849681854,None,1266.390264725685,1268.4239840507507,"Finden Sie nicht, er hat sich nach dem Tod seines Kindes völlig verändert?",verändert,1267.7740123033523,1271.8908541202545,1272.2742292642592,None,1282.9747802972793,1283.9915099143982,1284.3915219306946,None,./data/Subject_05/Session_01/Exp_data/2020_Aug_10_1059/rec_QA_run_01_block_001_trial_009.wav,05,01,Norwegian,B1,True,False,True,False,False,True,True,True,True,True,True,True,No,1,No,No,No,No,2020_Aug_10_1059,nibs_stage_1,3.2.3,59.999198924269734,
1,0,1,0,1,0,1,0,10,0,10,0,,,,,,,,,,,,,,,,,,,,,,,,,Listen to the question and speak out your answer!,1287.4589500427246,None,1287.4246921062468,1289.458447933197,"Es ist nicht zulässig, bei der Prüfung Hilfsmittel zu benutzen.",benutzen,1288.8417463064193,None,1292.8752863168716,None,1304.0425572156905,None,1305.4593000411987,None,./data/Subject_05/Session_01/Exp_data/2020_Aug_10_1059/rec_QA_run_01_block_001_trial_010.wav,05,01,Norwegian,B1,True,False,True,False,False,True,True,True,True,True,True,True,No,1,No,No,No,No,2020_Aug_10_1059,nibs_stage_1,3.2.3,59.999198924269734,
1,0,1,0,1,0,1,0,11,0,11,0,,,,,,,,,,,,,,,,,,,,,,,,,Listen to the question and speak out your answer!,1308.509985923767,None,1308.4758712530136,1310.509572982788,"Kunden sollten Produkte sorgfältig prüfen, bevor sie sie kaufen.",prüfen,1309.859539246559,None,1314.2930981874465,1315.3098211288452,1325.060444331169,1326.0770659446716,1326.477010011673,None,./data/Subject_05/Session_01/Exp_data/2020_Aug_10_1059/rec_QA_run_01_block_001_trial_011.wav,05,01,Norwegian,B1,True,False,True,False,False,True,True,True,True,True,True,True,No,1,No,No,No,No,2020_Aug_10_1059,nibs_stage_1,3.2.3,59.999198924269734,
1,0,1,0,1,0,1,0,12,0,12,0,,,,,,,,,,,,,,,,,,,,,,,,,Listen to the question and speak out your answer!,1329.528487920761,None,1329.510302019119,1331.5273389816284,Der Zahnarzt untersuchte meine Zunge genau.,untersuchte,1330.9106452226638,None,1334.1773981809615,None,1346.111444211006,None,1347.52818608284,None,./data/Subject_05/Session_01/Exp_data/2020_Aug_10_1059/rec_QA_run_01_block_001_trial_012.wav,05,01,Norwegian,B1,True,False,True,False,False,True,True,True,True,True,True,True,No,1,No,No,No,No,2020_Aug_10_1059,nibs_stage_1,3.2.3,59.999198924269734,
1,0,1,0,1,0,1,0,13,0,13,0,,,,,,,,,,,,,,,,,,,,,,,,,Listen to the question and speak out your answer!,1350.5951979160309,None,1350.5613910675047,1352.595057964325,"Doris ist leider zu spät gekommen, die Apotheke hat heute schon geschlossen.",geschlossen,1351.9450852632522,1356.6286680698395,1357.0453731775283,1358.0620851516724,1367.1459061861037,None,1368.5627851486206,None,./data/Subject_05/Session_01/Exp_data/2020_Aug_10_1059/rec_QA_run_01_block_001_trial_013.wav,05,01,Norwegian,B1,True,False,True,False,False,True,True,True,True,True,True,True,No,1,No,No,No,No,2020_Aug_10_1059,nibs_stage_1,3.2.3,59.999198924269734,
1,0,1,0,1,0,1,0,14,0,14,0,,,,,,,,,,,,,,,,,,,,,,,,,Listen to the question and speak out your answer!,1371.6300840377808,None,1371.595852088928,1373.6296291351318,"Wir mussten ein amtliches Formular ausfüllen, als wir geheiratet haben.",ausfüllen,1372.9796252012252,None,1377.713134264946,None,1388.1803543329238,None,1389.5970809459686,None,./data/Subject_05/Session_01/Exp_data/2020_Aug_10_1059/rec_QA_run_01_block_001_trial_014.wav,05,01,Norwegian,B1,True,False,True,False,False,True,True,True,True,True,True,True,No,1,No,No,No,No,2020_Aug_10_1059,nibs_stage_1,3.2.3,59.999198924269734,
1,0,1,0,1,0,1,0,15,0,15,0,,,,,,,,,,,,,,,,,,,,,,,,,Listen to the question and speak out your answer!,1392.6645579338074,None,1392.6303119182585,1394.6641869544983,Die Ausbildung besteht aus mehreren Modulen.,besteht,1394.0473181962966,1396.7974889278412,1397.1808411836623,1398.1975529193878,1409.2481422185897,None,1410.6649141311646,None,./data/Subject_05/Session_01/Exp_data/2020_Aug_10_1059/rec_QA_run_01_block_001_trial_015.wav,05,01,Norwegian,B1,True,False,True,False,False,True,True,True,True,True,True,True,No,1,No,No,No,No,2020_Aug_10_1059,nibs_stage_1,3.2.3,59.999198924269734,
1,0,1,0,1,0,1,0,16,0,16,0,,,,,,,,,,,,,,,,,,,,,,,,,Listen to the question and speak out your answer!,1413.6986639499664,None,1413.6814412355423,1415.6984651088715,Die Gäste gratulieren dem jungen Paar herzlich zur Hochzeit.,gratulieren,1415.0817482233047,1418.8653140068054,1419.248663163185,1420.2653999328613,1430.2826082468032,1431.299299955368,1431.699716091156,None,./data/Subject_05/Session_01/Exp_data/2020_Aug_10_1059/rec_QA_run_01_block_001_trial_016.wav,05,01,Norwegian,B1,True,False,True,False,False,True,True,True,True,True,True,True,No,1,No,No,No,No,2020_Aug_10_1059,nibs_stage_1,3.2.3,59.999198924269734,
1,0,1,0,1,0,1,0,17,0,17,0,,,,,,,,,,,,,,,,,,,,,,,,,Listen to the question and speak out your answer!,1434.7334611415863,None,1434.6992599487303,1436.7329199314117,Er hat den Vorgang im Tagebuch beschrieben.,beschrieben,1436.0829062223434,1438.5330040454865,1438.9496972322463,None,1451.2838442087173,None,1452.700432062149,None,./data/Subject_05/Session_01/Exp_data/2020_Aug_10_1059/rec_QA_run_01_block_001_trial_017.wav,05,01,Norwegian,B1,True,False,True,False,False,True,True,True,True,True,True,True,No,1,No,No,No,No,2020_Aug_10_1059,nibs_stage_1,3.2.3,59.999198924269734,
1,0,1,0,1,0,1,0,18,0,18,0,,,,,,,,,,,,,,,,,,,,,,,,,Listen to the question and speak out your answer!,1455.7678830623627,None,1455.7336549282072,1457.7673709392548,Während meines Urlaubs werde ich nach China und Japan reisen.,reisen,1457.1506871938705,1460.934466123581,1461.2842273473739,None,1472.3181442975997,None,1473.734925031662,None,./data/Subject_05/Session_01/Exp_data/2020_Aug_10_1059/rec_QA_run_01_block_001_trial_018.wav,05,01,Norwegian,B1,True,False,True,False,False,True,True,True,True,True,True,True,No,1,No,No,No,No,2020_Aug_10_1059,nibs_stage_1,3.2.3,59.999198924269734,
1,0,1,0,1,0,1,0,19,0,19,0,,,,,,,,,,,,,,,,,,,,,,,,,Listen to the question and speak out your answer!,1476.8023300170898,None,1476.7681149959562,1478.8019080162048,Floras Eltern machen eine Kreuzfahrt mit einem riesigen Schiff auf dem Meer.,machen,1478.151840186119,None,1482.9853842020034,None,1493.352682328224,1494.369306087494,1494.769338130951,None,./data/Subject_05/Session_01/Exp_data/2020_Aug_10_1059/rec_QA_run_01_block_001_trial_019.wav,05,01,Norwegian,B1,True,False,True,False,False,True,True,True,True,True,True,True,No,1,No,No,No,No,2020_Aug_10_1059,nibs_stage_1,3.2.3,59.999198924269734,
1,0,1,0,1,0,1,0,20,0,20,0,,,,,,,,,,,,,,,,,,,,,,,,,Listen to the question and speak out your answer!,1497.8203871250153,None,1497.8024920940397,1499.8195960521698,"Da drüben raucht es, wir sollten die Feuerwehr holen.",raucht,1499.202879166603,1502.5864100456238,1502.9364242315291,None,1514.4036311864852,1515.420774936676,1515.8204441070557,None,./data/Subject_05/Session_01/Exp_data/2020_Aug_10_1059/rec_QA_run_01_block_001_trial_020.wav,05,01,Norwegian,B1,True,False,True,False,False,True,True,True,True,True,True,True,No,1,No,No,No,No,2020_Aug_10_1059,nibs_stage_1,3.2.3,59.999198924269734,
1,0,1,0,1,0,1,0,21,0,21,0,,,,,,,,,,,,,,,,,,,,,,,,,Listen to the question and speak out your answer!,1518.8708980083466,None,1518.8536378860472,1520.8707029819489,"Du kannst den Hund streicheln, er wird dich nicht beißen.",beißen,1520.2207913160323,1523.2375929355621,1523.620846247673,1524.6375710964203,1535.4214663267135,None,1536.8382351398468,None,./data/Subject_05/Session_01/Exp_data/2020_Aug_10_1059/rec_QA_run_01_block_001_trial_021.wav,05,01,Norwegian,B1,True,False,True,False,False,True,True,True,True,True,True,True,No,1,No,No,No,No,2020_Aug_10_1059,nibs_stage_1,3.2.3,59.999198924269734,
1,0,1,0,1,0,1,0,22,0,22,0,,,,,,,,,,,,,,,,,,,,,,,,,Listen to the question and speak out your answer!,1539.9051339626312,None,1539.8715970039366,1541.9051539897919,Bewegung und gesunde Ernährung gehören zu einer gesunden Lebensweise.,gehören,1541.2885353326797,None,1546.0886981248855,None,1556.4892673254012,None,1557.9060320854187,None,./data/Subject_05/Session_01/Exp_data/2020_Aug_10_1059/rec_QA_run_01_block_001_trial_022.wav,05,01,Norwegian,B1,True,False,True,False,False,True,True,True,True,True,True,True,No,1,No,No,No,No,2020_Aug_10_1059,nibs_stage_1,3.2.3,59.999198924269734,
1,0,1,0,1,0,1,0,23,0,23,0,,,,,,,,,,,,,,,,,,,,,,,,,Listen to the question and speak out your answer!,1560.9402091503143,None,1560.9058649063109,1562.93958902359,An unserem Baum hängen viele reife Birnen,hängen,1562.2894723176955,1565.139720916748,1565.523060297966,None,1577.4903552293777,None,1578.9076409339905,None,./data/Subject_05/Session_01/Exp_data/2020_Aug_10_1059/rec_QA_run_01_block_001_trial_023.wav,05,01,Norwegian,B1,True,False,True,False,False,True,True,True,True,True,True,True,No,1,No,No,No,No,2020_Aug_10_1059,nibs_stage_1,3.2.3,59.999198924269734,
1,0,1,0,1,0,1,0,24,0,24,0,,,,,,,,,,,,,,,,,,,,,,,,,Listen to the question and speak out your answer!,1581.9578371047974,None,1581.9236418962478,1583.9573979377747,Ein Fußball Team besteht aus zehn Spielern und einem Tormann.,besteht,1583.340675330162,1587.1908740997314,1587.5742792844771,None,1598.54156229496,None,1599.9581949710846,None,./data/Subject_05/Session_01/Exp_data/2020_Aug_10_1059/rec_QA_run_01_block_001_trial_024.wav,05,01,Norwegian,B1,True,False,True,False,False,True,True,True,True,True,True,True,No,1,No,No,No,No,2020_Aug_10_1059,nibs_stage_1,3.2.3,59.999198924269734,
