run.thisRepN,run.thisTrialN,run.thisN,run.thisIndex,artifact_trial.thisRepN,artifact_trial.thisTrialN,artifact_trial.thisN,artifact_trial.thisIndex,QA_block.thisRepN,QA_block.thisTrialN,QA_block.thisN,QA_block.thisIndex,QA_trial.thisRepN,QA_trial.thisTrialN,QA_trial.thisN,QA_trial.thisIndex,fade_in_text.text,fade_in_text.started,fade_in_text.stopped,Artifact_intro_title.started,Artifact_intro_title.stopped,Artifact_intro_text.text,Artifact_intro_text.started,Artifact_intro_text.stopped,Artifact_intro_audio.started,Artifact_intro_audio.stopped,Artifact_intro_cont.started,Artifact_intro_cont.stopped,Artifact_rec_text.text,Artifact_rec_text.started,Artifact_rec_text.stopped,Artifact_rec_beep_hint.started,Artifact_rec_beep_hint.stopped,Artifact_rec_action.started,Artifact_rec_action.stopped,Artifact_rec_beep_start.started,Artifact_rec_beep_start.stopped,Artifact_rec_recording.started,Artifact_rec_recording.stopped,Artifact_rec_beep_end.started,Artifact_rec_beep_end.stopped,Artifact_rec_break.started,Artifact_rec_break.stopped,RS_intro_title.started,RS_intro_title.stopped,RS_intro_text.text,RS_intro_text.started,RS_intro_text.stopped,RS_intro_audio.started,RS_intro_audio.stopped,RS_rec_text.text,RS_rec_text.started,RS_rec_text.stopped,Pause_cont.started,Pause_cont.stopped,QA_intro_title.started,QA_intro_title.stopped,QA_intro_text.text,QA_intro_text.started,QA_intro_text.stopped,QA_intro_audio.started,QA_intro_audio.stopped,QA_intro_cont.started,QA_intro_cont.stopped,QA_rec_text.text,QA_rec_text.started,QA_rec_text.stopped,QA_rec_beep_hint.started,QA_rec_beep_hint.stopped,QA_rec_question.sen_text,QA_rec_question.cen_text,QA_rec_question.started,QA_rec_question.stopped,QA_rec_beep_start.started,QA_rec_beep_start.stopped,QA_rec_beep_end.started,QA_rec_beep_end.stopped,QA_rec_break.started,QA_rec_break.stopped,filename,fade_out_text.text,fade_out_text.started,fade_out_text.stopped,participant,session,First language,German level,Full_screen,Instruction,Intro,Artifact,Cali_pre,Fade_in_out,Artifact_within,Resting_State,QA,Pause,Cali_post,End,Breakpoint_Cali_pre_trial,Breakpoint_Run,Breakpoint_RS_block,Breakpoint_QA_block,Breakpoint_QA_trial,Breakpoint_Cali_post_trial,date,expName,psychopyVersion,frameRate,
2,0,2,0,0,0,0,0,,,,,,,,,Please remain seated until further instruction via the earphone.,57.25584888458252,None,59.2891309261322,86.29050803184509,"  - Task: Artifacts collection   
  - Please follow audio instruction              
",59.2891309261322,86.29050803184509,59.272712683677675,None,85.65709686279297,None,,91.87402391433716,None,91.85752079486846,93.8581030368805,93.24083516597747,None,96.6410121679306,None,98.0411882162094,108.04182696342468,108.44207928180694,109.44198489189148,109.8416759967804,110.84187388420105,,,,,,,,,,,,,,,,,,,,,,,,,,,,,,,,,,,,,,,,,08,02,English,A2,True,False,True,False,False,True,True,True,True,True,True,True,No,2,No,No,No,No,2020_Aug_05_1223,nibs_stage_1,3.2.3,60.01362156098511,
2,0,2,0,1,0,1,0,,,,,,,,,,,,,,,,,,,,,,113.89195680618286,None,113.87530968189239,115.87567281723022,115.25894615650176,None,118.65914628505706,None,120.05880019664764,130.0593240261078,130.45950815677642,131.45946288108826,131.8594880104065,132.85952997207642,,,,,,,,,,,,,,,,,,,,,,,,,,,,,,,,,,,,,,,,,08,02,English,A2,True,False,True,False,False,True,True,True,True,True,True,True,No,2,No,No,No,No,2020_Aug_05_1223,nibs_stage_1,3.2.3,60.01362156098511,
2,0,2,0,2,0,2,0,,,,,,,,,,,,,,,,,,,,,,135.90974497795105,None,135.89311382770538,137.8931908607483,137.2764622926712,None,140.6771621465683,None,142.0769481420517,152.07744193077087,152.47745821475982,None,153.8774449825287,154.87760496139526,,,,,,,,,,,,,,,,,,,,,,,,,,,,,,,,,,,,,,,,,08,02,English,A2,True,False,True,False,False,True,True,True,True,True,True,True,No,2,No,No,No,No,2020_Aug_05_1223,nibs_stage_1,3.2.3,60.01362156098511,
2,0,2,0,3,0,3,0,,,,,,,,,,,,,,,,,,,,,,157.92799592018127,None,157.91117475032806,159.9112730026245,159.29445621967315,None,162.6947481393814,None,164.0947372674942,174.09559392929077,174.49563810825347,175.49565386772156,175.89551186561584,176.89607286453247,,,,,,,,,,,,,,,,,,,,,,,,,,,,,,,,,,,,,,,,,08,02,English,A2,True,False,True,False,False,True,True,True,True,True,True,True,No,2,No,No,No,No,2020_Aug_05_1223,nibs_stage_1,3.2.3,60.01362156098511,
2,0,2,0,4,0,4,0,,,,,,,,,,,,,,,,,,,,,,179.94555187225342,None,179.92901966571807,181.92898201942444,181.31228516101837,None,184.7124552488327,185.71257185935974,186.11255929470062,196.11305594444275,196.51317331790924,None,197.9131419658661,198.9131109714508,,,,,,,,,,,,,,,,,,,,,,,,,,,,,,,,,,,,,,,,,08,02,English,A2,True,False,True,False,False,True,True,True,True,True,True,True,No,2,No,No,No,No,2020_Aug_05_1223,nibs_stage_1,3.2.3,60.01362156098511,
2,0,2,0,5,0,5,0,,,,,,,,,,,,,,,,,,,,,,201.96341586112976,None,201.946874833107,203.94680190086365,203.3300101518631,None,206.7302922964096,None,208.13035128116607,218.16414880752563,218.54733011722564,None,219.96405696868896,220.99736094474792,,,,,,,,,,,,,,,,,,,,,,,,,,,,,,,,,,,,,,,,,08,02,English,A2,True,False,True,False,False,True,True,True,True,True,True,True,No,2,No,No,No,No,2020_Aug_05_1223,nibs_stage_1,3.2.3,60.01362156098511,
2,0,2,0,6,0,6,0,,,,,,,,,,,,,,,,,,,,,,223.9978449344635,None,223.98112366199493,225.9976999759674,225.3810102701187,None,228.7811841726303,None,230.1812622308731,240.19844102859497,240.58180210590362,None,241.99868297576904,243.03191995620728,,,,,,,,,,,,,,,,,,,,,,,,,,,,,,,,,,,,,,,,,08,02,English,A2,True,False,True,False,False,True,True,True,True,True,True,True,No,2,No,No,No,No,2020_Aug_05_1223,nibs_stage_1,3.2.3,60.01362156098511,
2,0,2,0,7,0,7,0,,,,,,,,,,,,,,,,,,,,,,246.03250885009766,None,246.01549575328826,248.03217196464539,247.4154762983322,250.43230080604553,250.81568310260772,None,252.21573421955108,262.23292899131775,262.6162581205368,None,264.03300881385803,265.06631898880005,,,,,,,,,,,,,,,,,,,,,,,,,,,,,,,,,,,,,,,,,08,02,English,A2,True,False,True,False,False,True,True,True,True,True,True,True,No,2,No,No,No,No,2020_Aug_05_1223,nibs_stage_1,3.2.3,60.01362156098511,
2,0,2,0,8,0,8,0,,,,,,,,,,,,,,,,,,,,,,268.0667510032654,None,268.0500998258591,270.066654920578,269.4499542474747,272.46678590774536,272.85018322467806,273.86688899993896,274.25020430088045,284.26738595962524,284.6507382154465,285.6674590110779,286.0674889087677,287.1008508205414,,,,,,,,,,,,,,,,,,,,,,,,,,,,,,,,,,,,,,,,,08,02,English,A2,True,False,True,False,False,True,True,True,True,True,True,True,No,2,No,No,No,No,2020_Aug_05_1223,nibs_stage_1,3.2.3,60.01362156098511,
2,0,2,0,9,0,9,0,,,,,,,,,,,,,,,,,,,,,,290.1015570163727,None,290.0845396280289,292.10113501548767,291.48442432880404,294.50124883651733,294.8846041917801,295.9014208316803,296.2846791505814,306.30184292793274,306.6852302312851,None,308.10207080841064,309.13533902168274,,,,,,,,,,,,,,,,,,,,,,,,,,,,,,,,,,,,,,,,,08,02,English,A2,True,False,True,False,False,True,True,True,True,True,True,True,No,2,No,No,No,No,2020_Aug_05_1223,nibs_stage_1,3.2.3,60.01362156098511,
2,0,2,0,10,0,10,0,,,,,,,,,,,,,,,,,,,,,,312.1357538700104,None,312.118918633461,314.13559794425964,313.51891419887545,None,316.9191841840744,317.9358010292053,318.31915113925936,328.3363378047943,328.7197122335434,None,330.13643503189087,331.1698818206787,,,,,,,,,,,,,,,,,,,,,,,,,,,,,,,,,,,,,,,,,08,02,English,A2,True,False,True,False,False,True,True,True,True,True,True,True,No,2,No,No,No,No,2020_Aug_05_1223,nibs_stage_1,3.2.3,60.01362156098511,
2,0,2,0,11,0,11,0,,,,,,,,,,,,,,,,,,,,,,334.1705479621887,None,334.1534077882767,336.1701979637146,335.55338618755343,None,338.9535503149033,None,340.35361621379855,350.37083196640015,350.75416324138644,None,352.17089891433716,353.2043619155884,,,,,,,,,,,,,,,,,,,,,,,,,,,,,,,,,,,,,,,,,08,02,English,A2,True,False,True,False,False,True,True,True,True,True,True,True,No,2,No,No,No,No,2020_Aug_05_1223,nibs_stage_1,3.2.3,60.01362156098511,
2,0,2,0,12,0,12,0,,,,,,,,,,,,,,,,,,,,,,356.2051799297333,None,356.18789169788363,358.2045419216156,357.5878503084183,360.604660987854,360.98802111148837,None,362.3880951166153,372.40536093711853,372.78872725963595,373.80543184280396,374.2054569721222,375.2388470172882,,,,,,,,,,,,,,,,,,,,,,,,,,,,,,,,,,,,,,,,,08,02,English,A2,True,False,True,False,False,True,True,True,True,True,True,True,No,2,No,No,No,No,2020_Aug_05_1223,nibs_stage_1,3.2.3,60.01362156098511,
2,0,2,0,13,0,13,0,,,,,,,,,,,,,,,,,,,,,,378.2391128540039,None,378.22232077121737,380.2390978336334,379.6224221944809,None,383.0225713014603,384.03929686546326,384.42256519794466,394.4398319721222,394.82320020198824,None,396.23983883857727,397.27330684661865,,,,,,,,,,,,,,,,,,,,,,,,,,,,,,,,,,,,,,,,,08,02,English,A2,True,False,True,False,False,True,True,True,True,True,True,True,No,2,No,No,No,No,2020_Aug_05_1223,nibs_stage_1,3.2.3,60.01362156098511,
2,0,2,0,14,0,14,0,,,,,,,,,,,,,,,,,,,,,,400.2741119861603,None,400.25689766407015,402.27363300323486,401.65689227581026,None,405.05705831050875,406.07387590408325,406.45717833042147,416.4742228984833,416.8576612234116,None,418.2743058204651,419.3077778816223,,,,,,,,,,,,,,,,,,,,,,,,,,,,,,,,,,,,,,,,,08,02,English,A2,True,False,True,False,False,True,True,True,True,True,True,True,No,2,No,No,No,No,2020_Aug_05_1223,nibs_stage_1,3.2.3,60.01362156098511,
2,0,2,0,,,,,0,0,0,0,0,0,0,0,,,,,,,,,,,,,,,,,,,,,,,,,,,,629.7688539028168,None," - Task: Keep seated and relaxed with either      
             opening or closing eyes                  
 - Beep sound with decreasing pitch: Block finish 
",629.7688539028168,None,629.7519881248475,None,"Please keep relaxed and open your eyes.
Note: Blinking is allowed.",652.8200058937073,832.8623588085175,836.2293078899384,None,854.1637988090515,894.1988589763641," - Task: Listen to the question& Speak out answer 
 - Melodious beep sound: Trial start              
 - Silent sound (blank): censored word            
 - Beep sound with increasing pitch: Rec. start   
 - Beep sound with decreasing pitch: Rec. finish  
",854.1637988090515,894.1988589763641,854.1469404459,None,893.5821599960327,None,Listen to the question and speak out your answer!,900.1658380031586,None,900.1326498508454,902.1659438610077,Durch ein Fernrohr kann man manchmal sogar die Venus sehen.,sehen,901.5493011236191,None,905.2160901784897,None,916.7500202417374,None,918.1667740345001,None,./data/Subject_08/Session_02/Exp_data/2020_Aug_05_1223/rec_QA_run_02_block_000_trial_000.wav,,,,08,02,English,A2,True,False,True,False,False,True,True,True,True,True,True,True,No,2,No,No,No,No,2020_Aug_05_1223,nibs_stage_1,3.2.3,60.01362156098511,
2,0,2,0,,,,,0,0,0,0,1,0,1,0,,,,,,,,,,,,,,,,,,,,,,,,,,,,,,,,,,,,,,,,,,,,,,,,,Listen to the question and speak out your answer!,921.2008748054504,None,921.1836773633958,923.2004578113556,"Es ist Zeit, diesen Ort zu verlassen.",verlassen,922.5836431741715,None,925.3504462003708,None,937.7844311952591,None,939.2012569904327,None,./data/Subject_08/Session_02/Exp_data/2020_Aug_05_1223/rec_QA_run_02_block_000_trial_001.wav,,,,08,02,English,A2,True,False,True,False,False,True,True,True,True,True,True,True,No,2,No,No,No,No,2020_Aug_05_1223,nibs_stage_1,3.2.3,60.01362156098511,
2,0,2,0,,,,,0,0,0,0,2,0,2,0,,,,,,,,,,,,,,,,,,,,,,,,,,,,,,,,,,,,,,,,,,,,,,,,,Listen to the question and speak out your answer!,942.2686009407043,None,942.23475689888,944.2682528495789,Bienen liefern Honig.,liefern,943.6514022111893,945.3014929294586,945.6848301649094,None,958.8521933317185,959.8690710067749,960.2688620090485,None,./data/Subject_08/Session_02/Exp_data/2020_Aug_05_1223/rec_QA_run_02_block_000_trial_002.wav,,,,08,02,English,A2,True,False,True,False,False,True,True,True,True,True,True,True,No,2,No,No,No,No,2020_Aug_05_1223,nibs_stage_1,3.2.3,60.01362156098511,
2,0,2,0,,,,,0,0,0,0,3,0,3,0,,,,,,,,,,,,,,,,,,,,,,,,,,,,,,,,,,,,,,,,,,,,,,,,,Listen to the question and speak out your answer!,963.3025069236755,None,963.2691950321198,965.3025050163269,Während oder nach einem Regen kann man einen Regenbogen vorsehen.,vorsehen,964.6858162641525,None,968.9527051210404,None,979.8868431806565,None,981.303407907486,None,./data/Subject_08/Session_02/Exp_data/2020_Aug_05_1223/rec_QA_run_02_block_000_trial_003.wav,,,,08,02,English,A2,True,False,True,False,False,True,True,True,True,True,True,True,No,2,No,No,No,No,2020_Aug_05_1223,nibs_stage_1,3.2.3,60.01362156098511,
2,0,2,0,,,,,0,0,0,0,4,0,4,0,,,,,,,,,,,,,,,,,,,,,,,,,,,,,,,,,,,,,,,,,,,,,,,,,Listen to the question and speak out your answer!,984.3374488353729,None,984.3035950183869,986.3369348049164,Korn wird zur Herstellung von Mehl verwendet.,verwendet,985.6869151353836,None,988.8871853113175,989.9037818908691,1000.8877253293991,None,1002.304447889328,None,./data/Subject_08/Session_02/Exp_data/2020_Aug_05_1223/rec_QA_run_02_block_000_trial_004.wav,,,,08,02,English,A2,True,False,True,False,False,True,True,True,True,True,True,True,No,2,No,No,No,No,2020_Aug_05_1223,nibs_stage_1,3.2.3,60.01362156098511,
2,0,2,0,,,,,0,0,0,0,5,0,5,0,,,,,,,,,,,,,,,,,,,,,,,,,,,,,,,,,,,,,,,,,,,,,,,,,Listen to the question and speak out your answer!,1005.3718898296356,None,1005.3380090713501,1007.3714578151703,Mit der Benzin wird der Motor des Autos angetrieben.,angetrieben,1006.7213182210922,1009.8381469249725,1010.2214121580124,None,1021.9221071958542,None,1023.3387458324432,None,./data/Subject_08/Session_02/Exp_data/2020_Aug_05_1223/rec_QA_run_02_block_000_trial_005.wav,,,,08,02,English,A2,True,False,True,False,False,True,True,True,True,True,True,True,No,2,No,No,No,No,2020_Aug_05_1223,nibs_stage_1,3.2.3,60.01362156098511,
2,0,2,0,,,,,0,0,0,0,6,0,6,0,,,,,,,,,,,,,,,,,,,,,,,,,,,,,,,,,,,,,,,,,,,,,,,,,Listen to the question and speak out your answer!,1026.405750989914,None,1026.389121222496,1028.4057610034943,Am nächsten Bahnhof muss ich aus dem Zug aussteigen.,aussteigen,1027.7890572309493,1030.9061529636383,1031.2892563104629,1032.305981874466,1042.9899301290511,None,1044.3732109069824,1045.4066498279572,./data/Subject_08/Session_02/Exp_data/2020_Aug_05_1223/rec_QA_run_02_block_000_trial_006.wav,,,,08,02,English,A2,True,False,True,False,False,True,True,True,True,True,True,True,No,2,No,No,No,No,2020_Aug_05_1223,nibs_stage_1,3.2.3,60.01362156098511,
2,0,2,0,,,,,0,0,0,0,7,0,7,0,,,,,,,,,,,,,,,,,,,,,,,,,,,,,,,,,,,,,,,,,,,,,,,,,Listen to the question and speak out your answer!,1047.4735248088837,None,1047.4401819229124,1049.4735498428345,Der Fluss fließt an der Grenze entlang.,fließt,1048.8568081617354,1051.20693898201,1051.55696914196,None,1064.0575952291488,1065.0742239952087,1065.4743888378143,None,./data/Subject_08/Session_02/Exp_data/2020_Aug_05_1223/rec_QA_run_02_block_000_trial_007.wav,,,,08,02,English,A2,True,False,True,False,False,True,True,True,True,True,True,True,No,2,No,No,No,No,2020_Aug_05_1223,nibs_stage_1,3.2.3,60.01362156098511,
2,0,2,0,,,,,0,0,0,0,8,0,8,0,,,,,,,,,,,,,,,,,,,,,,,,,,,,,,,,,,,,,,,,,,,,,,,,,Listen to the question and speak out your answer!,1068.5081548690796,None,1068.491303372383,1070.5079429149628,"Ich wusste nicht, ob ich lachen oder weinen sollte.",lachen,1069.8912341356277,None,1073.2247371435164,None,1085.0920343160628,None,1086.5086679458618,None,./data/Subject_08/Session_02/Exp_data/2020_Aug_05_1223/rec_QA_run_02_block_000_trial_008.wav,,,,08,02,English,A2,True,False,True,False,False,True,True,True,True,True,True,True,No,2,No,No,No,No,2020_Aug_05_1223,nibs_stage_1,3.2.3,60.01362156098511,
2,0,2,0,,,,,0,0,0,0,9,0,9,0,,,,,,,,,,,,,,,,,,,,,,,,,,,,,,,,,,,,,,,,,,,,,,,,,Listen to the question and speak out your answer!,1089.5928959846497,None,1089.5590132951736,1091.5924499034882,"Wenn es kalt wird, muss ich einen warmen Pullover tragen.",tragen,1090.9423062562942,None,1094.6426281690597,None,1106.1430871248244,None,1107.5598378181458,None,./data/Subject_08/Session_02/Exp_data/2020_Aug_05_1223/rec_QA_run_02_block_000_trial_009.wav,,,,08,02,English,A2,True,False,True,False,False,True,True,True,True,True,True,True,No,2,No,No,No,No,2020_Aug_05_1223,nibs_stage_1,3.2.3,60.01362156098511,
2,0,2,0,,,,,0,0,0,0,10,0,10,0,,,,,,,,,,,,,,,,,,,,,,,,,,,,,,,,,,,,,,,,,,,,,,,,,Listen to the question and speak out your answer!,1110.6100108623505,None,1110.5934400081633,1112.6102259159088,"Ich nehme nie Dinge, die anderen gehören.",gehören,1111.9934341669082,None,1114.8935672998427,1115.9102749824524,1127.1775402784347,None,1128.5942549705505,None,./data/Subject_08/Session_02/Exp_data/2020_Aug_05_1223/rec_QA_run_02_block_000_trial_010.wav,,,,08,02,English,A2,True,False,True,False,False,True,True,True,True,True,True,True,No,2,No,No,No,No,2020_Aug_05_1223,nibs_stage_1,3.2.3,60.01362156098511,
2,0,2,0,,,,,0,0,0,0,11,0,11,0,,,,,,,,,,,,,,,,,,,,,,,,,,,,,,,,,,,,,,,,,,,,,,,,,Listen to the question and speak out your answer!,1131.6617269515991,None,1131.6278500080107,1133.661183834076,Ich will nicht mein ganzes Geld für ein neues Auto ausgeben.,ausgeben,1133.0111601114272,1136.528303861618,1136.9113511800765,None,1148.2286002397536,None,1149.6453449726105,None,./data/Subject_08/Session_02/Exp_data/2020_Aug_05_1223/rec_QA_run_02_block_000_trial_011.wav,,,,08,02,English,A2,True,False,True,False,False,True,True,True,True,True,True,True,No,2,No,No,No,No,2020_Aug_05_1223,nibs_stage_1,3.2.3,60.01362156098511,
2,0,2,0,,,,,0,0,0,0,12,0,12,0,,,,,,,,,,,,,,,,,,,,,,,,,,,,,,,,,,,,,,,,,,,,,,,,,Listen to the question and speak out your answer!,1152.7124609947205,None,1152.6955892324447,1154.7122478485107,Dort an der Ampel kannst du die Straße überqueren.,überqueren,1154.0955631494521,1157.112625837326,1157.4957341909408,None,1169.296353316307,None,1170.7130749225616,None,./data/Subject_08/Session_02/Exp_data/2020_Aug_05_1223/rec_QA_run_02_block_000_trial_012.wav,,,,08,02,English,A2,True,False,True,False,False,True,True,True,True,True,True,True,No,2,No,No,No,No,2020_Aug_05_1223,nibs_stage_1,3.2.3,60.01362156098511,
2,0,2,0,,,,,0,0,0,0,13,0,13,0,,,,,,,,,,,,,,,,,,,,,,,,,,,,,,,,,,,,,,,,,,,,,,,,,Listen to the question and speak out your answer!,1173.7473149299622,None,1173.713324022293,1175.7466778755188,Die Wassermelone schmeckt sehr süß.,schmeckt,1175.0966481924056,None,1177.9301082849502,None,1190.297691321373,None,1191.7142570018768,None,./data/Subject_08/Session_02/Exp_data/2020_Aug_05_1223/rec_QA_run_02_block_000_trial_013.wav,,,,08,02,English,A2,True,False,True,False,False,True,True,True,True,True,True,True,No,2,No,No,No,No,2020_Aug_05_1223,nibs_stage_1,3.2.3,60.01362156098511,
2,0,2,0,,,,,0,0,0,0,14,0,14,0,,,,,,,,,,,,,,,,,,,,,,,,,,,,,,,,,,,,,,,,,,,,,,,,,Listen to the question and speak out your answer!,1194.7815189361572,None,1194.7477490425108,1196.781100988388,Ich werde meinen Geburtstag morgen mit meinen Freunden feiern.,feiern,1196.1310713052749,1199.7478380203247,1200.1312691926955,1201.1479918956757,1211.3319082021712,1212.3485548496246,1212.7485909461975,None,./data/Subject_08/Session_02/Exp_data/2020_Aug_05_1223/rec_QA_run_02_block_000_trial_014.wav,,,,08,02,English,A2,True,False,True,False,False,True,True,True,True,True,True,True,No,2,No,No,No,No,2020_Aug_05_1223,nibs_stage_1,3.2.3,60.01362156098511,
2,0,2,0,,,,,0,0,0,0,15,0,15,0,,,,,,,,,,,,,,,,,,,,,,,,,,,,,,,,,,,,,,,,,,,,,,,,,Listen to the question and speak out your answer!,1215.8161458969116,None,1215.7821349620817,1217.8155109882355,"Am Ostersonntag suchen die Kinder bunte Eier, die ihre Eltern verstecken.",verstecken,1217.198801255226,None,1222.099071240425,None,1232.3997111082076,1233.4163739681244,1233.816368818283,None,./data/Subject_08/Session_02/Exp_data/2020_Aug_05_1223/rec_QA_run_02_block_000_trial_015.wav,,,,08,02,English,A2,True,False,True,False,False,True,True,True,True,True,True,True,No,2,No,No,No,No,2020_Aug_05_1223,nibs_stage_1,3.2.3,60.01362156098511,
2,0,2,0,,,,,0,0,0,0,16,0,16,0,,,,,,,,,,,,,,,,,,,,,,,,,,,,,,,,,,,,,,,,,,,,,,,,,Listen to the question and speak out your answer!,1236.8499598503113,None,1236.8166291236876,1238.8502328395844,Warum antwortest du nicht auf meine Frage?,antwortest,1238.2332651376723,None,1241.3334481477737,None,1253.4340872526168,None,1254.8508260250092,None,./data/Subject_08/Session_02/Exp_data/2020_Aug_05_1223/rec_QA_run_02_block_000_trial_016.wav,,,,08,02,English,A2,True,False,True,False,False,True,True,True,True,True,True,True,No,2,No,No,No,No,2020_Aug_05_1223,nibs_stage_1,3.2.3,60.01362156098511,
2,0,2,0,,,,,0,0,0,0,17,0,17,0,,,,,,,,,,,,,,,,,,,,,,,,,,,,,,,,,,,,,,,,,,,,,,,,,Listen to the question and speak out your answer!,1257.8677549362183,None,1257.8344087362289,1259.8676998615265,Bananen wachsen auf Palmen.,wachsen,1259.2176933050155,None,1261.6845361948012,1262.7012720108032,1274.4185693025588,None,1275.8353018760681,None,./data/Subject_08/Session_02/Exp_data/2020_Aug_05_1223/rec_QA_run_02_block_000_trial_017.wav,,,,08,02,English,A2,True,False,True,False,False,True,True,True,True,True,True,True,No,2,No,No,No,No,2020_Aug_05_1223,nibs_stage_1,3.2.3,60.01362156098511,
2,0,2,0,,,,,0,0,0,0,18,0,18,0,,,,,,,,,,,,,,,,,,,,,,,,,,,,,,,,,,,,,,,,,,,,,,,,,Listen to the question and speak out your answer!,1278.902668952942,None,1278.8690070629118,1280.9022359848022,Wir leben alle auf der Erde.,leben,1280.2855231523513,None,1282.5189831018447,None,1295.4862823247909,None,1296.903095960617,None,./data/Subject_08/Session_02/Exp_data/2020_Aug_05_1223/rec_QA_run_02_block_000_trial_018.wav,,,,08,02,English,A2,True,False,True,False,False,True,True,True,True,True,True,True,No,2,No,No,No,No,2020_Aug_05_1223,nibs_stage_1,3.2.3,60.01362156098511,
2,0,2,0,,,,,0,0,0,0,19,0,19,0,,,,,,,,,,,,,,,,,,,,,,,,,,,,,,,,,,,,,,,,,,,,,,,,,Listen to the question and speak out your answer!,1299.9372549057007,None,1299.9033629417418,1301.9367139339447,"Nachdem ich nicht da war, kann ich nichts dazu sagen.",sagen,1301.3200042009353,None,1304.720205283165,None,1316.5207941293716,None,1317.9374849796295,None,./data/Subject_08/Session_02/Exp_data/2020_Aug_05_1223/rec_QA_run_02_block_000_trial_019.wav,,,,08,02,English,A2,True,False,True,False,False,True,True,True,True,True,True,True,No,2,No,No,No,No,2020_Aug_05_1223,nibs_stage_1,3.2.3,60.01362156098511,
2,0,2,0,,,,,0,0,0,0,20,0,20,0,,,,,,,,,,,,,,,,,,,,,,,,,,,,,,,,,,,,,,,,,,,,,,,,,Listen to the question and speak out your answer!,1320.9717140197754,None,1320.9379019260405,1322.9712648391724,Die Kinder haben sich wegen eines Spielzeugs gequält und gestritten.,gestritten,1322.354462122917,1326.3382568359375,1326.7215571165084,None,1337.5386352300643,None,1338.9553768634796,None,./data/Subject_08/Session_02/Exp_data/2020_Aug_05_1223/rec_QA_run_02_block_000_trial_020.wav,,,,08,02,English,A2,True,False,True,False,False,True,True,True,True,True,True,True,No,2,No,No,No,No,2020_Aug_05_1223,nibs_stage_1,3.2.3,60.01362156098511,
2,0,2,0,,,,,0,0,0,0,21,0,21,0,,,,,,,,,,,,,,,,,,,,,,,,,,,,,,,,,,,,,,,,,,,,,,,,,Listen to the question and speak out your answer!,1342.0228159427643,None,1341.9889409065245,1344.0222878456116,Wir müssen uns beeilen oder wir verpassen unseren Zug.,beeilen,1343.4055862188338,1346.7557678222656,1347.139122223854,None,1358.6065361261367,1359.6231319904327,1360.023195028305,None,./data/Subject_08/Session_02/Exp_data/2020_Aug_05_1223/rec_QA_run_02_block_000_trial_021.wav,,,,08,02,English,A2,True,False,True,False,False,True,True,True,True,True,True,True,No,2,No,No,No,No,2020_Aug_05_1223,nibs_stage_1,3.2.3,60.01362156098511,
2,0,2,0,,,,,0,0,0,0,22,0,22,0,,,,,,,,,,,,,,,,,,,,,,,,,,,,,,,,,,,,,,,,,,,,,,,,,Listen to the question and speak out your answer!,1363.0567710399628,None,1363.0233869075773,1365.056653022766,Jeder Topf kommt mit seinen Deckel beim Einkaufen.,kommt,1364.440051293373,1367.356868982315,1367.7402302980422,1368.7570219039917,1379.6408622026443,None,1381.0576059818268,None,./data/Subject_08/Session_02/Exp_data/2020_Aug_05_1223/rec_QA_run_02_block_000_trial_022.wav,,,,08,02,English,A2,True,False,True,False,False,True,True,True,True,True,True,True,No,2,No,No,No,No,2020_Aug_05_1223,nibs_stage_1,3.2.3,60.01362156098511,
2,0,2,0,,,,,0,0,0,0,23,0,23,0,,,,,,,,,,,,,,,,,,,,,,,,,,,,,,,,,,,,,,,,,,,,,,,,,Listen to the question and speak out your answer!,1384.0753469467163,None,1384.0579850196837,1386.0745630264282,Tim sammelt Briefmarken und Münzen.,sammelt,1385.457837319374,None,1388.29133913517,None,1400.6586773157119,1401.675372838974,1402.0755178928375,None,./data/Subject_08/Session_02/Exp_data/2020_Aug_05_1223/rec_QA_run_02_block_000_trial_023.wav,,,,08,02,English,A2,True,False,True,False,False,True,True,True,True,True,True,True,No,2,No,No,No,No,2020_Aug_05_1223,nibs_stage_1,3.2.3,60.01362156098511,
2,0,2,0,,,,,0,0,0,0,24,0,24,0,,,,,,,,,,,,,,,,,,,,,,,,,,,,,,,,,,,,,,,,,,,,,,,,,Listen to the question and speak out your answer!,1405.1427919864655,None,1405.1089899063109,1407.1423389911652,"Ich warte seit drei Tagen auf Sie, wo waren Sie denn?",warte,1406.5256461858748,None,1410.225834107399,1411.2425589561462,1421.7264091730117,1422.7432520389557,1423.1432688236237,None,./data/Subject_08/Session_02/Exp_data/2020_Aug_05_1223/rec_QA_run_02_block_000_trial_024.wav,,,,08,02,English,A2,True,False,True,False,False,True,True,True,True,True,True,True,No,2,No,No,No,No,2020_Aug_05_1223,nibs_stage_1,3.2.3,60.01362156098511,
2,0,2,0,,,,,0,0,0,0,,,,,,,,,,,,,,,,,,,,,,,,,,,,,,,,,,,,,,,,,,1427.1601049900055,None,,,,,,,,,,,,,,,,,,,,,,,,,,,,,08,02,English,A2,True,False,True,False,False,True,True,True,True,True,True,True,No,2,No,No,No,No,2020_Aug_05_1223,nibs_stage_1,3.2.3,60.01362156098511,
2,0,2,0,,,,,1,0,1,0,0,0,0,0,,,,,,,,,,,,,,,,,,,,,,,,,,,,,,,,,,,,,,,,,,,,,,,,,Listen to the question and speak out your answer!,1457.4617788791656,None,1457.4285788059233,1459.4618430137634,Lisa tanzt im Ballett.,tanzt,1458.8117711305617,None,1460.8119213342666,None,1474.0127031564712,None,1475.4293129444122,None,./data/Subject_08/Session_02/Exp_data/2020_Aug_05_1223/rec_QA_run_02_block_001_trial_000.wav,,,,08,02,English,A2,True,False,True,False,False,True,True,True,True,True,True,True,No,2,No,No,No,No,2020_Aug_05_1223,nibs_stage_1,3.2.3,60.01362156098511,
2,0,2,0,,,,,1,0,1,0,1,0,1,0,,,,,,,,,,,,,,,,,,,,,,,,,,,,,,,,,,,,,,,,,,,,,,,,,Listen to the question and speak out your answer!,1478.4967019557953,None,1478.462995958328,1480.4963788986206,Er verwendet einen Bleistift auf der Wand zu malen.,malen,1479.8795642614364,1482.8966388702393,1483.2797341108321,None,1495.0803723096847,None,1496.4970078468323,None,./data/Subject_08/Session_02/Exp_data/2020_Aug_05_1223/rec_QA_run_02_block_001_trial_001.wav,,,,08,02,English,A2,True,False,True,False,False,True,True,True,True,True,True,True,No,2,No,No,No,No,2020_Aug_05_1223,nibs_stage_1,3.2.3,60.01362156098511,
2,0,2,0,,,,,1,0,1,0,2,0,2,0,,,,,,,,,,,,,,,,,,,,,,,,,,,,,,,,,,,,,,,,,,,,,,,,,Listen to the question and speak out your answer!,1499.5312809944153,None,1499.4974619865416,1501.530690908432,Unser Biolehrer unterrichtet uns auch machmal im Grünen.,unterrichtet,1500.8806593179702,1504.3307628631592,1504.714195227623,None,1516.0814893007278,None,1517.4983079433441,None,./data/Subject_08/Session_02/Exp_data/2020_Aug_05_1223/rec_QA_run_02_block_001_trial_002.wav,,,,08,02,English,A2,True,False,True,False,False,True,True,True,True,True,True,True,No,2,No,No,No,No,2020_Aug_05_1223,nibs_stage_1,3.2.3,60.01362156098511,
2,0,2,0,,,,,1,0,1,0,3,0,3,0,,,,,,,,,,,,,,,,,,,,,,,,,,,,,,,,,,,,,,,,,,,,,,,,,Listen to the question and speak out your answer!,1520.5655679702759,None,1520.5318359851835,1522.5651500225067,"Ich benutze mein Handy, um Textnachrichten zu senden.",senden,1521.9484321832656,1525.4652948379517,1525.84864923954,1526.8653609752655,1537.1492593050002,None,1538.566279888153,None,./data/Subject_08/Session_02/Exp_data/2020_Aug_05_1223/rec_QA_run_02_block_001_trial_003.wav,,,,08,02,English,A2,True,False,True,False,False,True,True,True,True,True,True,True,No,2,No,No,No,No,2020_Aug_05_1223,nibs_stage_1,3.2.3,60.01362156098511,
2,0,2,0,,,,,1,0,1,0,4,0,4,0,,,,,,,,,,,,,,,,,,,,,,,,,,,,,,,,,,,,,,,,,,,,,,,,,Listen to the question and speak out your answer!,1541.6830840110779,None,1541.6663458824157,1543.682955980301,"Da Elena arbeiten muss, überlässt sie ihre Kinder seiner Mutter.",überlässt,1543.032906270027,None,1547.199785208702,1548.2166469097137,1558.233728146553,None,1559.6504578590393,None,./data/Subject_08/Session_02/Exp_data/2020_Aug_05_1223/rec_QA_run_02_block_001_trial_004.wav,,,,08,02,English,A2,True,False,True,False,False,True,True,True,True,True,True,True,No,2,No,No,No,No,2020_Aug_05_1223,nibs_stage_1,3.2.3,60.01362156098511,
2,0,2,0,,,,,1,0,1,0,5,0,5,0,,,,,,,,,,,,,,,,,,,,,,,,,,,,,,,,,,,,,,,,,,,,,,,,,Listen to the question and speak out your answer!,1562.7179458141327,None,1562.6840340614317,1564.7172830104828,Das laute Auto meines Nachbarn stört mich jeden Tag.,stört,1564.067339158058,None,1567.9674751520156,None,1579.2683441400527,None,1580.6849038600922,None,./data/Subject_08/Session_02/Exp_data/2020_Aug_05_1223/rec_QA_run_02_block_001_trial_005.wav,,,,08,02,English,A2,True,False,True,False,False,True,True,True,True,True,True,True,No,2,No,No,No,No,2020_Aug_05_1223,nibs_stage_1,3.2.3,60.01362156098511,
2,0,2,0,,,,,1,0,1,0,6,0,6,0,,,,,,,,,,,,,,,,,,,,,,,,,,,,,,,,,,,,,,,,,,,,,,,,,Listen to the question and speak out your answer!,1583.7527379989624,None,1583.735204386711,1585.7520158290863,In Österreich darf ein Präsident sechs Jahre regieren.,regieren,1585.1351113080977,1588.485379934311,1588.8685631513595,None,1600.3359381914138,1601.3526539802551,1601.7526659965515,None,./data/Subject_08/Session_02/Exp_data/2020_Aug_05_1223/rec_QA_run_02_block_001_trial_006.wav,,,,08,02,English,A2,True,False,True,False,False,True,True,True,True,True,True,True,No,2,No,No,No,No,2020_Aug_05_1223,nibs_stage_1,3.2.3,60.01362156098511,
2,0,2,0,,,,,1,0,1,0,7,0,7,0,,,,,,,,,,,,,,,,,,,,,,,,,,,,,,,,,,,,,,,,,,,,,,,,,Listen to the question and speak out your answer!,1604.8211629390717,None,1604.8029462575912,1606.8196258544922,In den großen Ferien wandern wir gerne in den Bergen.,wandern,1606.2029201745986,None,1609.9031131029128,1610.9198160171509,1621.4037952184676,1622.420413017273,1622.8204338550568,None,./data/Subject_08/Session_02/Exp_data/2020_Aug_05_1223/rec_QA_run_02_block_001_trial_007.wav,,,,08,02,English,A2,True,False,True,False,False,True,True,True,True,True,True,True,No,2,No,No,No,No,2020_Aug_05_1223,nibs_stage_1,3.2.3,60.01362156098511,
2,0,2,0,,,,,1,0,1,0,8,0,8,0,,,,,,,,,,,,,,,,,,,,,,,,,,,,,,,,,,,,,,,,,,,,,,,,,Listen to the question and speak out your answer!,1625.888221025467,None,1625.8706943273544,1627.8873720169067,In der Vergangenheit war Berlin in zwei Hälften geteilt.,geteilt,1627.270678257942,1630.621088027954,1631.0042111635207,None,1642.43817923069,None,1643.854887008667,None,./data/Subject_08/Session_02/Exp_data/2020_Aug_05_1223/rec_QA_run_02_block_001_trial_008.wav,,,,08,02,English,A2,True,False,True,False,False,True,True,True,True,True,True,True,No,2,No,No,No,No,2020_Aug_05_1223,nibs_stage_1,3.2.3,60.01362156098511,
2,0,2,0,,,,,1,0,1,0,9,0,9,0,,,,,,,,,,,,,,,,,,,,,,,,,,,,,,,,,,,,,,,,,,,,,,,,,Listen to the question and speak out your answer!,1646.9223580360413,None,1646.8885130405424,1648.921818971634,Er hat eine gerade Linie von einem Punkt zum anderen gezogen.,gezogen,1648.2717892885207,1651.9554948806763,1652.3719982862472,None,1663.4726052045821,1664.4894850254059,1664.8893158435822,None,./data/Subject_08/Session_02/Exp_data/2020_Aug_05_1223/rec_QA_run_02_block_001_trial_009.wav,,,,08,02,English,A2,True,False,True,False,False,True,True,True,True,True,True,True,No,2,No,No,No,No,2020_Aug_05_1223,nibs_stage_1,3.2.3,60.01362156098511,
2,0,2,0,,,,,1,0,1,0,10,0,10,0,,,,,,,,,,,,,,,,,,,,,,,,,,,,,,,,,,,,,,,,,,,,,,,,,Listen to the question and speak out your answer!,1667.9564759731293,None,1667.9395972967147,1669.956279039383,Die Armbanduhr ist aus rostfreiem Stahl gefertigt und wird nicht rosten.,rosten,1669.3395712137221,None,1674.0731582403182,1675.0898578166962,1684.540390229225,None,1685.9570848941803,None,./data/Subject_08/Session_02/Exp_data/2020_Aug_05_1223/rec_QA_run_02_block_001_trial_010.wav,,,,08,02,English,A2,True,False,True,False,False,True,True,True,True,True,True,True,No,2,No,No,No,No,2020_Aug_05_1223,nibs_stage_1,3.2.3,60.01362156098511,
2,0,2,0,,,,,1,0,1,0,11,0,11,0,,,,,,,,,,,,,,,,,,,,,,,,,,,,,,,,,,,,,,,,,,,,,,,,,Listen to the question and speak out your answer!,1688.9913790225983,None,1688.9744474172592,1690.990698814392,"Ich würde sehr froh, wenn meine Familie 5 Millionen Euro gewinnen würde.",gewinnen,1690.3739273309707,1695.0243728160858,1695.3742711305617,None,1705.574832177162,1706.5915489196777,1706.9915640354156,None,./data/Subject_08/Session_02/Exp_data/2020_Aug_05_1223/rec_QA_run_02_block_001_trial_011.wav,,,,08,02,English,A2,True,False,True,False,False,True,True,True,True,True,True,True,No,2,No,No,No,No,2020_Aug_05_1223,nibs_stage_1,3.2.3,60.01362156098511,
2,0,2,0,,,,,1,0,1,0,12,0,12,0,,,,,,,,,,,,,,,,,,,,,,,,,,,,,,,,,,,,,,,,,,,,,,,,,Listen to the question and speak out your answer!,1710.059012889862,None,1710.0251750469206,1712.0584738254547,"Er kann sie nicht hören, weil sie zu leise spricht.",hören,1711.4084241151809,1714.3252680301666,1714.7086012125014,None,1726.6092912912368,1727.625988960266,1728.0259988307953,None,./data/Subject_08/Session_02/Exp_data/2020_Aug_05_1223/rec_QA_run_02_block_001_trial_012.wav,,,,08,02,English,A2,True,False,True,False,False,True,True,True,True,True,True,True,No,2,No,No,No,No,2020_Aug_05_1223,nibs_stage_1,3.2.3,60.01362156098511,
2,0,2,0,,,,,1,0,1,0,13,0,13,0,,,,,,,,,,,,,,,,,,,,,,,,,,,,,,,,,,,,,,,,,,,,,,,,,Listen to the question and speak out your answer!,1731.0943059921265,None,1731.0765263319015,1733.0929219722748,"Da Mark gestern sehr spät aufgestanden ist, wird er heute nicht früh aufstehen.",aufstehen,1732.4762263059615,None,1737.5431573152541,None,1747.6769931077956,None,1749.0937509536743,None,./data/Subject_08/Session_02/Exp_data/2020_Aug_05_1223/rec_QA_run_02_block_001_trial_013.wav,,,,08,02,English,A2,True,False,True,False,False,True,True,True,True,True,True,True,No,2,No,No,No,No,2020_Aug_05_1223,nibs_stage_1,3.2.3,60.01362156098511,
2,0,2,0,,,,,1,0,1,0,14,0,14,0,,,,,,,,,,,,,,,,,,,,,,,,,,,,,,,,,,,,,,,,,,,,,,,,,Listen to the question and speak out your answer!,1752.1445310115814,None,1752.1106743097305,1754.1440179347992,"Um mein Auto zu kaufen, die Bank hat mir das Geld geliehen.",geliehen,1753.4940242528914,1756.97775888443,1757.360770201683,None,1768.6948022603988,1769.711529970169,1770.1115460395813,None,./data/Subject_08/Session_02/Exp_data/2020_Aug_05_1223/rec_QA_run_02_block_001_trial_014.wav,,,,08,02,English,A2,True,False,True,False,False,True,True,True,True,True,True,True,No,2,No,No,No,No,2020_Aug_05_1223,nibs_stage_1,3.2.3,60.01362156098511,
2,0,2,0,,,,,1,0,1,0,15,0,15,0,,,,,,,,,,,,,,,,,,,,,,,,,,,,,,,,,,,,,,,,,,,,,,,,,Listen to the question and speak out your answer!,1773.1625938415527,None,1773.1452419281004,1775.1617980003357,Das Zimmer kostet ein Hundert Euro pro Nacht.,kostet,1774.545092320442,None,1777.7787132024764,None,1789.7459282636642,None,1791.1626238822937,None,./data/Subject_08/Session_02/Exp_data/2020_Aug_05_1223/rec_QA_run_02_block_001_trial_015.wav,,,,08,02,English,A2,True,False,True,False,False,True,True,True,True,True,True,True,No,2,No,No,No,No,2020_Aug_05_1223,nibs_stage_1,3.2.3,60.01362156098511,
2,0,2,0,,,,,1,0,1,0,16,0,16,0,,,,,,,,,,,,,,,,,,,,,,,,,,,,,,,,,,,,,,,,,,,,,,,,,Listen to the question and speak out your answer!,1794.2312319278717,None,1794.2128712415695,1796.2295649051666,"Der Fischer musste das Netz einziehen, ohne etwas gefangen zu haben.",einziehen,1795.612871146202,None,1799.879813170433,None,1810.8137891054153,None,1812.2304458618164,None,./data/Subject_08/Session_02/Exp_data/2020_Aug_05_1223/rec_QA_run_02_block_001_trial_016.wav,,,,08,02,English,A2,True,False,True,False,False,True,True,True,True,True,True,True,No,2,No,No,No,No,2020_Aug_05_1223,nibs_stage_1,3.2.3,60.01362156098511,
2,0,2,0,,,,,1,0,1,0,17,0,17,0,,,,,,,,,,,,,,,,,,,,,,,,,,,,,,,,,,,,,,,,,,,,,,,,,Listen to the question and speak out your answer!,1815.2980318069458,None,1815.2805864095687,1817.297329902649,Die technologische Entwicklung schafft immer kleinere Computer.,schafft,1816.6806602239608,1820.4975008964539,1820.8808572053908,None,1831.881477332115,None,1833.298173904419,None,./data/Subject_08/Session_02/Exp_data/2020_Aug_05_1223/rec_QA_run_02_block_001_trial_017.wav,,,,08,02,English,A2,True,False,True,False,False,True,True,True,True,True,True,True,No,2,No,No,No,No,2020_Aug_05_1223,nibs_stage_1,3.2.3,60.01362156098511,
2,0,2,0,,,,,1,0,1,0,18,0,18,0,,,,,,,,,,,,,,,,,,,,,,,,,,,,,,,,,,,,,,,,,,,,,,,,,Listen to the question and speak out your answer!,1836.3655469417572,None,1836.3317560672758,1838.365399837494,Der Flug nach New York wird mehrere Stunden dauern.,dauern,1837.748387312889,1840.8321948051453,1841.2154381036758,None,1852.9492041826247,None,1854.3659508228302,None,./data/Subject_08/Session_02/Exp_data/2020_Aug_05_1223/rec_QA_run_02_block_001_trial_018.wav,,,,08,02,English,A2,True,False,True,False,False,True,True,True,True,True,True,True,No,2,No,No,No,No,2020_Aug_05_1223,nibs_stage_1,3.2.3,60.01362156098511,
2,0,2,0,,,,,1,0,1,0,19,0,19,0,,,,,,,,,,,,,,,,,,,,,,,,,,,,,,,,,,,,,,,,,,,,,,,,,Listen to the question and speak out your answer!,1857.3995478153229,None,1857.3661989688871,1859.399552822113,Ich liebe würzige Saucen. ,liebe,1858.782850241661,None,1860.9829971551894,None,1873.983797287941,None,1875.40039396286,None,./data/Subject_08/Session_02/Exp_data/2020_Aug_05_1223/rec_QA_run_02_block_001_trial_019.wav,,,,08,02,English,A2,True,False,True,False,False,True,True,True,True,True,True,True,No,2,No,No,No,No,2020_Aug_05_1223,nibs_stage_1,3.2.3,60.01362156098511,
2,0,2,0,,,,,1,0,1,0,20,0,20,0,,,,,,,,,,,,,,,,,,,,,,,,,,,,,,,,,,,,,,,,,,,,,,,,,Listen to the question and speak out your answer!,1878.435142993927,None,1878.417295384407,1880.4339308738708,Ich nahm meinen Stift und begann zu schreiben.,begann,1879.8172752618789,1882.434182882309,1882.8174211740493,None,1895.0180561304091,None,1896.434821844101,None,./data/Subject_08/Session_02/Exp_data/2020_Aug_05_1223/rec_QA_run_02_block_001_trial_020.wav,,,,08,02,English,A2,True,False,True,False,False,True,True,True,True,True,True,True,No,2,No,No,No,No,2020_Aug_05_1223,nibs_stage_1,3.2.3,60.01362156098511,
2,0,2,0,,,,,1,0,1,0,21,0,21,0,,,,,,,,,,,,,,,,,,,,,,,,,,,,,,,,,,,,,,,,,,,,,,,,,Listen to the question and speak out your answer!,1899.485605955124,None,1899.4517363786697,1901.4849879741669,Die Tulpen stammen eigentlich aus Persien und der Türkei.,stammen,1900.835036253929,1904.351893901825,1904.7685611009597,None,1916.03610727787,None,1917.4526088237762,None,./data/Subject_08/Session_02/Exp_data/2020_Aug_05_1223/rec_QA_run_02_block_001_trial_021.wav,,,,08,02,English,A2,True,False,True,False,False,True,True,True,True,True,True,True,No,2,No,No,No,No,2020_Aug_05_1223,nibs_stage_1,3.2.3,60.01362156098511,
2,0,2,0,,,,,1,0,1,0,22,0,22,0,,,,,,,,,,,,,,,,,,,,,,,,,,,,,,,,,,,,,,,,,,,,,,,,,Listen to the question and speak out your answer!,1920.521096944809,None,1920.502827334404,1922.519493818283,Ich muss für meine wichtige Prüfung morgen lernen.,lernen,1921.902821278572,1924.8198919296265,1925.2029852628707,None,1937.1036531686782,None,1938.5203700065613,None,./data/Subject_08/Session_02/Exp_data/2020_Aug_05_1223/rec_QA_run_02_block_001_trial_022.wav,,,,08,02,English,A2,True,False,True,False,False,True,True,True,True,True,True,True,No,2,No,No,No,No,2020_Aug_05_1223,nibs_stage_1,3.2.3,60.01362156098511,
2,0,2,0,,,,,1,0,1,0,23,0,23,0,,,,,,,,,,,,,,,,,,,,,,,,,,,,,,,,,,,,,,,,,,,,,,,,,Listen to the question and speak out your answer!,1941.5872418880463,None,1941.5539509773253,1943.5873799324036,Wir müssen die Kunden jeden Monat über ihren finanziellen Status informieren.,informieren,1942.9372381925582,1947.6208398342133,1948.0041792154311,None,1958.154705262184,None,1959.5714559555054,None,./data/Subject_08/Session_02/Exp_data/2020_Aug_05_1223/rec_QA_run_02_block_001_trial_023.wav,,,,08,02,English,A2,True,False,True,False,False,True,True,True,True,True,True,True,No,2,No,No,No,No,2020_Aug_05_1223,nibs_stage_1,3.2.3,60.01362156098511,
2,0,2,0,,,,,1,0,1,0,24,0,24,0,,,,,,,,,,,,,,,,,,,,,,,,,,,,,,,,,,,,,,,,,,,,,,,,,Listen to the question and speak out your answer!,1962.6555988788605,None,1962.621724295616,1964.6550450325012,In der Parfümerie riecht es sehr stark nach verschiedenen Düften.,riecht,1964.0050172567367,None,1968.2052292585372,1969.2219529151917,1979.205807185173,1980.222529888153,1980.6225488185883,None,./data/Subject_08/Session_02/Exp_data/2020_Aug_05_1223/rec_QA_run_02_block_001_trial_024.wav,,,,08,02,English,A2,True,False,True,False,False,True,True,True,True,True,True,True,No,2,No,No,No,No,2020_Aug_05_1223,nibs_stage_1,3.2.3,60.01362156098511,
2,0,2,0,,,,,1,0,1,0,,,,,,,,,,,,,,,,,,,,,,,,,,,,,,,,,,,,,,,,,,1984.672775030136,None,,,,,,,,,,,,,,,,,,,,,,,,,,,,,08,02,English,A2,True,False,True,False,False,True,True,True,True,True,True,True,No,2,No,No,No,No,2020_Aug_05_1223,nibs_stage_1,3.2.3,60.01362156098511,
2,0,2,0,,,,,,,,,,,,,,,,,,,,,,,,,,,,,,,,,,,,,,,,,,,,,,,,,,,,,,,,,,,,,,,,,,,,,,,,,,,,,Please remain seated until further instruction via the earphone.,57.25584888458252,None,08,02,English,A2,True,False,True,False,False,True,True,True,True,True,True,True,No,2,No,No,No,No,2020_Aug_05_1223,nibs_stage_1,3.2.3,60.01362156098511,
