run.thisRepN,run.thisTrialN,run.thisN,run.thisIndex,QA_block.thisRepN,QA_block.thisTrialN,QA_block.thisN,QA_block.thisIndex,QA_trial.thisRepN,QA_trial.thisTrialN,QA_trial.thisN,QA_trial.thisIndex,fade_in_text.text,fade_in_text.started,fade_in_text.stopped,RS_intro_title.started,RS_intro_title.stopped,RS_intro_text.text,RS_intro_text.started,RS_intro_text.stopped,RS_intro_audio.started,RS_intro_audio.stopped,RS_rec_text.text,RS_rec_text.started,RS_rec_text.stopped,Pause_cont.started,Pause_cont.stopped,QA_intro_title.started,QA_intro_title.stopped,QA_intro_text.text,QA_intro_text.started,QA_intro_text.stopped,QA_intro_audio.started,QA_intro_audio.stopped,QA_intro_cont.started,QA_intro_cont.stopped,QA_rec_text.text,QA_rec_text.started,QA_rec_text.stopped,QA_rec_beep_hint.started,QA_rec_beep_hint.stopped,QA_rec_question.sen_text,QA_rec_question.cen_text,QA_rec_question.started,QA_rec_question.stopped,QA_rec_beep_start.started,QA_rec_beep_start.stopped,QA_rec_beep_end.started,QA_rec_beep_end.stopped,QA_rec_break.started,QA_rec_break.stopped,filename,participant,session,First language,German level,Full_screen,Instruction,Intro,Artifact,Cali_pre,Fade_in_out,Artifact_within,Resting_State,QA,Pause,Cali_post,End,Breakpoint_Cali_pre_trial,Breakpoint_Run,Breakpoint_RS_block,Breakpoint_QA_block,Breakpoint_QA_trial,Breakpoint_Cali_post_trial,date,expName,psychopyVersion,frameRate,
0,0,0,0,0,0,0,0,0,0,0,0,Please remain seated until further instruction via the earphone.,114.07447004318237,None,323.50254106521606,None," - Task: Keep seated and relaxed with either      
             opening or closing eyes                  
 - Beep sound with decreasing pitch: Block finish 
",323.50254106521606,None,323.50106596946716,None,"Please keep relaxed and open your eyes.
Note: Blinking is allowed.",346.5195128917694,526.5290529727936,529.9291279315948,None,566.8810999393463,606.899484872818," - Task: Listen to the question& Speak out answer 
 - Melodious beep sound: Trial start              
 - Silent sound (blank): censored word            
 - Beep sound with increasing pitch: Rec. start   
 - Beep sound with decreasing pitch: Rec. finish  
",566.8810999393463,606.899484872818,566.8631901741028,None,606.2660269737244,None,Listen to the question and speak out your answer!,611.6998269557953,None,611.6821422576904,613.6831488609314,"Sam ist nicht da, soll ich ihm sagen, dass Sie nachher zurück rufen?",rufen,613.0831525325775,617.1002080440521,617.5001394748688,618.5000760555267,628.2839045524597,None,629.683886051178,630.684033870697,./data/Subject_08/Session_02/Exp_data/2020_Aug_05_1115/rec_QA_run_00_block_000_trial_000.wav,08,02,English,A2,True,False,True,False,False,True,True,True,True,True,True,True,No,No,No,No,No,No,2020_Aug_05_1115,nibs_stage_1,3.2.3,60.001001374744476,
0,0,0,0,0,0,0,0,1,0,1,0,,,,,,,,,,,,,,,,,,,,,,,,,Listen to the question and speak out your answer!,632.7341258525848,None,632.7168707847595,634.7175629138947,Die Medien und Reporter sollten die Wahrheit berichten.,berichten,634.1175265312195,637.2009270191193,637.6176075935364,None,649.3183264732361,None,650.7183718681335,651.7185590267181,./data/Subject_08/Session_02/Exp_data/2020_Aug_05_1115/rec_QA_run_00_block_000_trial_001.wav,08,02,English,A2,True,False,True,False,False,True,True,True,True,True,True,True,No,No,No,No,No,No,2020_Aug_05_1115,nibs_stage_1,3.2.3,60.001001374744476,
0,0,0,0,0,0,0,0,2,0,2,0,,,,,,,,,,,,,,,,,,,,,,,,,Listen to the question and speak out your answer!,653.769777059555,None,653.7680585384369,655.7686378955841,Der Artikel hat uns über die Ursache des Erderwärmung informiert.,informiert,655.1352705955505,658.9688148498535,659.385490655899,None,670.3360614776611,671.3361070156097,671.7363150119781,672.7361860275269,./data/Subject_08/Session_02/Exp_data/2020_Aug_05_1115/rec_QA_run_00_block_000_trial_002.wav,08,02,English,A2,True,False,True,False,False,True,True,True,True,True,True,True,No,No,No,No,No,No,2020_Aug_05_1115,nibs_stage_1,3.2.3,60.001001374744476,
0,0,0,0,0,0,0,0,3,0,3,0,,,,,,,,,,,,,,,,,,,,,,,,,Listen to the question and speak out your answer!,674.8037979602814,None,674.8024234771729,676.8030378818512,"Ich muss einen Schirm holen, weil es regnet.",holen,676.1863684654236,None,679.2364885807037,None,691.387330532074,None,692.7873499393463,693.7874670028687,./data/Subject_08/Session_02/Exp_data/2020_Aug_05_1115/rec_QA_run_00_block_000_trial_003.wav,08,02,English,A2,True,False,True,False,False,True,True,True,True,True,True,True,No,No,No,No,No,No,2020_Aug_05_1115,nibs_stage_1,3.2.3,60.001001374744476,
0,0,0,0,0,0,0,0,4,0,4,0,,,,,,,,,,,,,,,,,,,,,,,,,Listen to the question and speak out your answer!,695.8544209003448,None,695.8369665145874,697.837681055069,"Als das Spiel unentschieden endete, wurde es um zweimal 15 Minuten verlängert.",endete,697.2209894657135,702.2879309654236,702.6879484653473,None,712.4217665195465,None,713.8222739696503,714.8385488986969,./data/Subject_08/Session_02/Exp_data/2020_Aug_05_1115/rec_QA_run_00_block_000_trial_004.wav,08,02,English,A2,True,False,True,False,False,True,True,True,True,True,True,True,No,No,No,No,No,No,2020_Aug_05_1115,nibs_stage_1,3.2.3,60.001001374744476,
0,0,0,0,0,0,0,0,5,0,5,0,,,,,,,,,,,,,,,,,,,,,,,,,Listen to the question and speak out your answer!,716.889261007309,None,716.8713858127594,718.8721449375153,Der Fallschirm wird im Fall geöffnet.,geöffnet,718.2720255851746,None,720.8555016517639,721.8556749820709,733.4727385044098,734.4729380607605,734.8728868961334,735.8732199668884,./data/Subject_08/Session_02/Exp_data/2020_Aug_05_1115/rec_QA_run_00_block_000_trial_005.wav,08,02,English,A2,True,False,True,False,False,True,True,True,True,True,True,True,No,No,No,No,No,No,2020_Aug_05_1115,nibs_stage_1,3.2.3,60.001001374744476,
0,0,0,0,0,0,0,0,6,0,6,0,,,,,,,,,,,,,,,,,,,,,,,,,Listen to the question and speak out your answer!,737.923388004303,None,737.9060568809509,739.9064700603485,"Es hat die ganze Woche geregnet, aber heute scheint endlich die Sonne. ",scheint,739.3063645362854,743.4400169849396,743.8400316238403,None,754.5239446163177,None,755.9074928760529,756.9073100090027,./data/Subject_08/Session_02/Exp_data/2020_Aug_05_1115/rec_QA_run_00_block_000_trial_006.wav,08,02,English,A2,True,False,True,False,False,True,True,True,True,True,True,True,No,No,No,No,No,No,2020_Aug_05_1115,nibs_stage_1,3.2.3,60.001001374744476,
0,0,0,0,0,0,0,0,7,0,7,0,,,,,,,,,,,,,,,,,,,,,,,,,Listen to the question and speak out your answer!,758.9908299446106,None,758.9734721183777,760.9742970466614,"Ich ging zum Arzt, weil ich mich unangenehm fühlte.",fühlte,760.3576984405518,763.5242359638214,763.9409875869751,None,775.5582904815674,None,776.9584000110626,777.9586029052734,./data/Subject_08/Session_02/Exp_data/2020_Aug_05_1115/rec_QA_run_00_block_000_trial_007.wav,08,02,English,A2,True,False,True,False,False,True,True,True,True,True,True,True,No,No,No,No,No,No,2020_Aug_05_1115,nibs_stage_1,3.2.3,60.001001374744476,
0,0,0,0,0,0,0,0,8,0,8,0,,,,,,,,,,,,,,,,,,,,,,,,,Listen to the question and speak out your answer!,780.0418798923492,None,780.0245523452759,782.0252859592438,"Die Regierung plant, mehr Arbeitsplätze für junge Menschen zu schaffen.",schaffen,781.4086406230927,None,785.8921666145325,None,796.6093595027924,None,798.0094408988953,799.0262279510498,./data/Subject_08/Session_02/Exp_data/2020_Aug_05_1115/rec_QA_run_00_block_000_trial_008.wav,08,02,English,A2,True,False,True,False,False,True,True,True,True,True,True,True,No,No,No,No,No,No,2020_Aug_05_1115,nibs_stage_1,3.2.3,60.001001374744476,
0,0,0,0,0,0,0,0,9,0,9,0,,,,,,,,,,,,,,,,,,,,,,,,,Listen to the question and speak out your answer!,801.093013048172,None,801.0757274627686,803.0765800476074,Eltern kümmern sich um ihre Kinder.,kümmern,802.4597225189209,None,805.0597984790802,806.0598740577698,817.6604535579681,None,819.0605249404907,820.0605759620667,./data/Subject_08/Session_02/Exp_data/2020_Aug_05_1115/rec_QA_run_00_block_000_trial_009.wav,08,02,English,A2,True,False,True,False,False,True,True,True,True,True,True,True,No,No,No,No,No,No,2020_Aug_05_1115,nibs_stage_1,3.2.3,60.001001374744476,
0,0,0,0,0,0,0,0,10,0,10,0,,,,,,,,,,,,,,,,,,,,,,,,,Listen to the question and speak out your answer!,822.1104719638824,None,822.0933282375336,824.0940480232239,Aus Fehlern kann man lernen.,lernen,823.4774255752563,None,825.610853433609,None,838.6781995296478,None,840.0948090553284,841.0949890613556,./data/Subject_08/Session_02/Exp_data/2020_Aug_05_1115/rec_QA_run_00_block_000_trial_010.wav,08,02,English,A2,True,False,True,False,False,True,True,True,True,True,True,True,No,No,No,No,No,No,2020_Aug_05_1115,nibs_stage_1,3.2.3,60.001001374744476,
0,0,0,0,0,0,0,0,11,0,11,0,,,,,,,,,,,,,,,,,,,,,,,,,Listen to the question and speak out your answer!,843.1618950366974,None,843.1444885730743,845.1455149650574,Entweder hat mir jemand die Geldtasche gestohlen oder ich habe sie verloren.,verloren,844.5284864902496,None,849.2626094818115,850.2621369361877,859.7293474674225,None,861.1293790340424,862.1294238567352,./data/Subject_08/Session_02/Exp_data/2020_Aug_05_1115/rec_QA_run_00_block_000_trial_011.wav,08,02,English,A2,True,False,True,False,False,True,True,True,True,True,True,True,No,No,No,No,No,No,2020_Aug_05_1115,nibs_stage_1,3.2.3,60.001001374744476,
0,0,0,0,0,0,0,0,12,0,12,0,,,,,,,,,,,,,,,,,,,,,,,,,Listen to the question and speak out your answer!,864.2129878997803,None,864.1955873966217,866.1962599754333,Ich höre sie den Namen Sam rufen.,rufen,865.5632135868073,867.8129880428314,868.2296795845032,None,880.7635264396667,None,882.1639330387115,883.1637840270996,./data/Subject_08/Session_02/Exp_data/2020_Aug_05_1115/rec_QA_run_00_block_000_trial_012.wav,08,02,English,A2,True,False,True,False,False,True,True,True,True,True,True,True,No,No,No,No,No,No,2020_Aug_05_1115,nibs_stage_1,3.2.3,60.001001374744476,
0,0,0,0,0,0,0,0,13,0,13,0,,,,,,,,,,,,,,,,,,,,,,,,,Listen to the question and speak out your answer!,885.2475829124451,None,885.2301118373871,887.2308599948883,"Bitten aufpassen, zu viel Zucker schadet der Gesundheit.",aufpassen,886.6306364536285,889.9974780082703,890.3975155353546,891.3975329399109,901.8312175273895,902.8311960697174,903.231479883194,904.2313070297241,./data/Subject_08/Session_02/Exp_data/2020_Aug_05_1115/rec_QA_run_00_block_000_trial_013.wav,08,02,English,A2,True,False,True,False,False,True,True,True,True,True,True,True,No,No,No,No,No,No,2020_Aug_05_1115,nibs_stage_1,3.2.3,60.001001374744476,
0,0,0,0,0,0,0,0,14,0,14,0,,,,,,,,,,,,,,,,,,,,,,,,,Listen to the question and speak out your answer!,906.2996180057526,None,906.2808065414429,908.2816698551178,Der Baum hängt voller Früchte.,hängt,907.6481366157532,909.5486998558044,909.9648206233978,None,922.8488476276398,None,924.2489910125732,925.2825000286102,./data/Subject_08/Session_02/Exp_data/2020_Aug_05_1115/rec_QA_run_00_block_000_trial_014.wav,08,02,English,A2,True,False,True,False,False,True,True,True,True,True,True,True,No,No,No,No,No,No,2020_Aug_05_1115,nibs_stage_1,3.2.3,60.001001374744476,
0,0,0,0,0,0,0,0,15,0,15,0,,,,,,,,,,,,,,,,,,,,,,,,,Listen to the question and speak out your answer!,927.3493309020996,None,927.331999540329,929.3326098918915,Wer soll den Geschirrspüler einräumen?,einräumen,928.7159154415131,None,931.299402475357,None,943.9166884422302,None,945.3167428970337,946.316822052002,./data/Subject_08/Session_02/Exp_data/2020_Aug_05_1115/rec_QA_run_00_block_000_trial_015.wav,08,02,English,A2,True,False,True,False,False,True,True,True,True,True,True,True,No,No,No,No,No,No,2020_Aug_05_1115,nibs_stage_1,3.2.3,60.001001374744476,
0,0,0,0,0,0,0,0,16,0,16,0,,,,,,,,,,,,,,,,,,,,,,,,,Listen to the question and speak out your answer!,948.4008119106293,None,948.3829965591431,950.3836679458618,Sie fühlt sich während der Quarantäne sehr langweilig.,fühlt,949.7669565677643,None,953.4505336284637,954.4507079124451,964.9677414894104,965.9678108692169,966.3678500652313,967.3678889274597,./data/Subject_08/Session_02/Exp_data/2020_Aug_05_1115/rec_QA_run_00_block_000_trial_016.wav,08,02,English,A2,True,False,True,False,False,True,True,True,True,True,True,True,No,No,No,No,No,No,2020_Aug_05_1115,nibs_stage_1,3.2.3,60.001001374744476,
0,0,0,0,0,0,0,0,17,0,17,0,,,,,,,,,,,,,,,,,,,,,,,,,Listen to the question and speak out your answer!,969.4514729976654,None,969.4340584278107,971.4347839355469,"Man nennt Klima-Wandel , dass die Temperaturen auf unserer Erde steigen.",steigen,970.8181085586548,None,975.6518115997314,976.6517560482025,986.0356166362762,987.0357530117035,987.4190938472748,988.4191999435425,./data/Subject_08/Session_02/Exp_data/2020_Aug_05_1115/rec_QA_run_00_block_000_trial_017.wav,08,02,English,A2,True,False,True,False,False,True,True,True,True,True,True,True,No,No,No,No,No,No,2020_Aug_05_1115,nibs_stage_1,3.2.3,60.001001374744476,
0,0,0,0,0,0,0,0,18,0,18,0,,,,,,,,,,,,,,,,,,,,,,,,,Listen to the question and speak out your answer!,990.4863209724426,None,990.4687757492065,992.4858088493347,Die Kinder haben ihrer Mutter im Haushalt geholfen.,geholfen,991.8691096305847,994.7528150081635,995.1359436511993,None,1007.0698976516724,None,1008.4866290092468,None,./data/Subject_08/Session_02/Exp_data/2020_Aug_05_1115/rec_QA_run_00_block_000_trial_018.wav,08,02,English,A2,True,False,True,False,False,True,True,True,True,True,True,True,No,No,No,No,No,No,2020_Aug_05_1115,nibs_stage_1,3.2.3,60.001001374744476,
0,0,0,0,0,0,0,0,19,0,19,0,,,,,,,,,,,,,,,,,,,,,,,,,Listen to the question and speak out your answer!,1011.5535378456116,None,1011.5195229053497,1013.5534880161285,Durch die Klimaveränderung steigen die Temperaturen auf der Erde.,steigen,1012.9368915557861,1017.0870859622955,1017.4370806217194,None,1028.1209785938263,None,1029.5378539562225,None,./data/Subject_08/Session_02/Exp_data/2020_Aug_05_1115/rec_QA_run_00_block_000_trial_019.wav,08,02,English,A2,True,False,True,False,False,True,True,True,True,True,True,True,No,No,No,No,No,No,2020_Aug_05_1115,nibs_stage_1,3.2.3,60.001001374744476,
0,0,0,0,0,0,0,0,20,0,20,0,,,,,,,,,,,,,,,,,,,,,,,,,Listen to the question and speak out your answer!,1032.6046369075775,None,1032.5706157684326,1034.604593038559,"Wenn ich einmal angefangen habe, kann mich nichts mehr aufhalten.",aufhalten,1033.9879245758057,1037.7383868694305,1038.121467590332,None,1049.1886825561523,1050.205400943756,1050.6054558753967,None,./data/Subject_08/Session_02/Exp_data/2020_Aug_05_1115/rec_QA_run_00_block_000_trial_020.wav,08,02,English,A2,True,False,True,False,False,True,True,True,True,True,True,True,No,No,No,No,No,No,2020_Aug_05_1115,nibs_stage_1,3.2.3,60.001001374744476,
0,0,0,0,0,0,0,0,21,0,21,0,,,,,,,,,,,,,,,,,,,,,,,,,Listen to the question and speak out your answer!,1053.6391990184784,None,1053.6216473579407,1055.639044046402,"Ich habe probiert, ihn zu überreden, aber er will nicht uns gehen. ",probiert,1055.0223546028137,1058.7058670520782,1059.0892126560211,1060.105926990509,1070.2230324745178,None,1071.6398458480835,None,./data/Subject_08/Session_02/Exp_data/2020_Aug_05_1115/rec_QA_run_00_block_000_trial_021.wav,08,02,English,A2,True,False,True,False,False,True,True,True,True,True,True,True,No,No,No,No,No,No,2020_Aug_05_1115,nibs_stage_1,3.2.3,60.001001374744476,
0,0,0,0,0,0,0,0,22,0,22,0,,,,,,,,,,,,,,,,,,,,,,,,,Listen to the question and speak out your answer!,1074.7070229053497,None,1074.6894135475159,1076.7067880630493,Er wurde zum Leiter der Abteilung befördert.,befördert,1076.0900704860687,None,1079.1235525608063,None,1091.2908675670624,None,1092.7075910568237,None,./data/Subject_08/Session_02/Exp_data/2020_Aug_05_1115/rec_QA_run_00_block_000_trial_022.wav,08,02,English,A2,True,False,True,False,False,True,True,True,True,True,True,True,No,No,No,No,No,No,2020_Aug_05_1115,nibs_stage_1,3.2.3,60.001001374744476,
0,0,0,0,0,0,0,0,23,0,23,0,,,,,,,,,,,,,,,,,,,,,,,,,Listen to the question and speak out your answer!,1095.7586359977722,None,1095.7405979633331,1097.757854938507,"Das Mädchen wollte etwas sagen, also hob sie ihre Hand.",sagen,1097.1411345005035,1100.6246738433838,1101.008017539978,None,1112.3419435024261,None,1113.7586579322815,None,./data/Subject_08/Session_02/Exp_data/2020_Aug_05_1115/rec_QA_run_00_block_000_trial_023.wav,08,02,English,A2,True,False,True,False,False,True,True,True,True,True,True,True,No,No,No,No,No,No,2020_Aug_05_1115,nibs_stage_1,3.2.3,60.001001374744476,
0,0,0,0,0,0,0,0,24,0,24,0,,,,,,,,,,,,,,,,,,,,,,,,,Listen to the question and speak out your answer!,1116.826586008072,None,1116.8082025051117,1118.8255770206451,"Sie brauchen kein Ticket, das Konzert ist kostenlos.",brauchen,1118.208883523941,1121.7257318496704,1122.109067440033,None,1133.4096405506134,1134.4263579845428,1134.826374053955,None,./data/Subject_08/Session_02/Exp_data/2020_Aug_05_1115/rec_QA_run_00_block_000_trial_024.wav,08,02,English,A2,True,False,True,False,False,True,True,True,True,True,True,True,No,No,No,No,No,No,2020_Aug_05_1115,nibs_stage_1,3.2.3,60.001001374744476,
0,0,0,0,0,0,0,0,,,,,,,,,,,,,,,,,,1138.8768110275269,None,,,,,,,,,,,,,,,,,,,,,,,,,,08,02,English,A2,True,False,True,False,False,True,True,True,True,True,True,True,No,No,No,No,No,No,2020_Aug_05_1115,nibs_stage_1,3.2.3,60.001001374744476,
0,0,0,0,1,0,1,0,0,0,0,0,,,,,,,,,,,,,,,,,,,,,,,,,Listen to the question and speak out your answer!,1165.6785440444946,None,1165.6442966461182,1167.6780970096588,Dieser Supermarkt hat nur am Tage geöffnet.,geöffnet,1167.0613596439362,None,1170.2281844615936,None,1182.2621476650238,None,1183.678904056549,None,./data/Subject_08/Session_02/Exp_data/2020_Aug_05_1115/rec_QA_run_00_block_001_trial_000.wav,08,02,English,A2,True,False,True,False,False,True,True,True,True,True,True,True,No,No,No,No,No,No,2020_Aug_05_1115,nibs_stage_1,3.2.3,60.001001374744476,
0,0,0,0,1,0,1,0,1,0,1,0,,,,,,,,,,,,,,,,,,,,,,,,,Listen to the question and speak out your answer!,1186.7127449512482,None,1186.6950993537903,1188.7124860286713,Ein junges Ehepaar ist gerade in das neue Haus neben unserem eingezogen.,eingezogen,1188.0957856178284,1192.6463780403137,1193.029480457306,None,1203.2965486049652,1204.3132569789886,1204.71320104599,None,./data/Subject_08/Session_02/Exp_data/2020_Aug_05_1115/rec_QA_run_00_block_001_trial_001.wav,08,02,English,A2,True,False,True,False,False,True,True,True,True,True,True,True,No,No,No,No,No,No,2020_Aug_05_1115,nibs_stage_1,3.2.3,60.001001374744476,
0,0,0,0,1,0,1,0,2,0,2,0,,,,,,,,,,,,,,,,,,,,,,,,,Listen to the question and speak out your answer!,1207.7802278995514,None,1207.7628843784332,1209.7802090644836,Die zwei Männer bewerben sich um einen gleichen Arbeitsplatz.,bewerben,1209.163512468338,None,1213.2637236118317,None,1224.364307641983,None,1225.7810418605804,None,./data/Subject_08/Session_02/Exp_data/2020_Aug_05_1115/rec_QA_run_00_block_001_trial_002.wav,08,02,English,A2,True,False,True,False,False,True,True,True,True,True,True,True,No,No,No,No,No,No,2020_Aug_05_1115,nibs_stage_1,3.2.3,60.001001374744476,
0,0,0,0,1,0,1,0,3,0,3,0,,,,,,,,,,,,,,,,,,,,,,,,,Listen to the question and speak out your answer!,1228.8163080215454,None,1228.7973935604095,1230.8146569728851,"Seine Freunde können seinen Worten nicht trauen, weil er immer lügt.",lügt,1230.1980335712433,1234.0821559429169,1234.4648146629333,None,1245.3987355232239,None,1246.8155269622803,None,./data/Subject_08/Session_02/Exp_data/2020_Aug_05_1115/rec_QA_run_00_block_001_trial_003.wav,08,02,English,A2,True,False,True,False,False,True,True,True,True,True,True,True,No,No,No,No,No,No,2020_Aug_05_1115,nibs_stage_1,3.2.3,60.001001374744476,
0,0,0,0,1,0,1,0,4,0,4,0,,,,,,,,,,,,,,,,,,,,,,,,,Listen to the question and speak out your answer!,1249.8493490219116,None,1249.8150668144226,1251.849072933197,Alkoholsucht schadet der Gesundheit.,schadet,1251.232379436493,None,1254.1325404644012,None,1266.4333095550537,None,1267.849949836731,None,./data/Subject_08/Session_02/Exp_data/2020_Aug_05_1115/rec_QA_run_00_block_001_trial_004.wav,08,02,English,A2,True,False,True,False,False,True,True,True,True,True,True,True,No,No,No,No,No,No,2020_Aug_05_1115,nibs_stage_1,3.2.3,60.001001374744476,
0,0,0,0,1,0,1,0,5,0,5,0,,,,,,,,,,,,,,,,,,,,,,,,,Listen to the question and speak out your answer!,1270.8840799331665,None,1270.8495128154755,1272.8835220336914,Wir essen Salat oft ungekocht.,essen,1272.2668266296387,1274.5169570446014,1274.9004056453705,1275.9170279502869,1287.4676306247711,None,1288.884381055832,None,./data/Subject_08/Session_02/Exp_data/2020_Aug_05_1115/rec_QA_run_00_block_001_trial_005.wav,08,02,English,A2,True,False,True,False,False,True,True,True,True,True,True,True,No,No,No,No,No,No,2020_Aug_05_1115,nibs_stage_1,3.2.3,60.001001374744476,
0,0,0,0,1,0,1,0,6,0,6,0,,,,,,,,,,,,,,,,,,,,,,,,,Listen to the question and speak out your answer!,1291.9184918403625,None,1291.9005913734436,1293.9180710315704,Diese Grafik hat die Ergebnisse deutlich dargestellt.,dargestellt,1293.3012795448303,1296.5183908939362,1296.9014716148376,1297.918210029602,1308.5020134449005,1309.5187978744507,1309.919009923935,None,./data/Subject_08/Session_02/Exp_data/2020_Aug_05_1115/rec_QA_run_00_block_001_trial_006.wav,08,02,English,A2,True,False,True,False,False,True,True,True,True,True,True,True,No,No,No,No,No,No,2020_Aug_05_1115,nibs_stage_1,3.2.3,60.001001374744476,
0,0,0,0,1,0,1,0,7,0,7,0,,,,,,,,,,,,,,,,,,,,,,,,,Listen to the question and speak out your answer!,1312.9531989097595,None,1312.9350855350494,1314.9524550437927,"Wir entschieden uns dafür, mit dem Flugzeug nach Stockholm zu fliegen.",fliegen,1314.3357245922089,1318.5862288475037,1318.9359645843506,None,1329.5365285873413,None,1330.9534640312195,None,./data/Subject_08/Session_02/Exp_data/2020_Aug_05_1115/rec_QA_run_00_block_001_trial_007.wav,08,02,English,A2,True,False,True,False,False,True,True,True,True,True,True,True,No,No,No,No,No,No,2020_Aug_05_1115,nibs_stage_1,3.2.3,60.001001374744476,
0,0,0,0,1,0,1,0,8,0,8,0,,,,,,,,,,,,,,,,,,,,,,,,,Listen to the question and speak out your answer!,1334.0211398601532,None,1334.002851486206,1336.0202078819275,"Das verstehe ich nicht, was meinst du damit?",meinst,1335.4035165309906,1338.087147951126,1338.470327615738,1339.4870600700378,1350.604308605194,None,1352.0210540294647,None,./data/Subject_08/Session_02/Exp_data/2020_Aug_05_1115/rec_QA_run_00_block_001_trial_008.wav,08,02,English,A2,True,False,True,False,False,True,True,True,True,True,True,True,No,No,No,No,No,No,2020_Aug_05_1115,nibs_stage_1,3.2.3,60.001001374744476,
0,0,0,0,1,0,1,0,9,0,9,0,,,,,,,,,,,,,,,,,,,,,,,,,Listen to the question and speak out your answer!,1355.1051869392395,None,1355.0705995559692,1357.104651927948,"Wissen Sie, wer als erster Bergsteiger den Mount Everest bestiegen hat?",bestiegen,1356.4879474639893,1360.8716020584106,1361.2215404510498,None,1371.6887724399567,None,1373.105495929718,None,./data/Subject_08/Session_02/Exp_data/2020_Aug_05_1115/rec_QA_run_00_block_001_trial_009.wav,08,02,English,A2,True,False,True,False,False,True,True,True,True,True,True,True,No,No,No,No,No,No,2020_Aug_05_1115,nibs_stage_1,3.2.3,60.001001374744476,
0,0,0,0,1,0,1,0,10,0,10,0,,,,,,,,,,,,,,,,,,,,,,,,,Listen to the question and speak out your answer!,1376.1395308971405,None,1376.1050517559052,1378.1396639347076,"Es freut mich sehr, Sie kennenzulernen.",freut,1377.5223965644836,None,1380.3892016410828,None,1392.7231996059418,1393.7399370670319,1394.140018939972,None,./data/Subject_08/Session_02/Exp_data/2020_Aug_05_1115/rec_QA_run_00_block_001_trial_010.wav,08,02,English,A2,True,False,True,False,False,True,True,True,True,True,True,True,No,No,No,No,No,No,2020_Aug_05_1115,nibs_stage_1,3.2.3,60.001001374744476,
0,0,0,0,1,0,1,0,11,0,11,0,,,,,,,,,,,,,,,,,,,,,,,,,Listen to the question and speak out your answer!,1397.1739599704742,None,1397.139494895935,1399.1737229824066,Ich möchte gerne ein Zimmer im Hilton-Hotel reservieren.,reservieren,1398.5568435192108,1401.8405828475952,1402.223843574524,None,1413.7579295635223,None,1415.174367904663,None,./data/Subject_08/Session_02/Exp_data/2020_Aug_05_1115/rec_QA_run_00_block_001_trial_011.wav,08,02,English,A2,True,False,True,False,False,True,True,True,True,True,True,True,No,No,No,No,No,No,2020_Aug_05_1115,nibs_stage_1,3.2.3,60.001001374744476,
0,0,0,0,1,0,1,0,12,0,12,0,,,,,,,,,,,,,,,,,,,,,,,,,Listen to the question and speak out your answer!,1418.2087638378143,None,1418.1906244754791,1420.208088874817,Ich lese gerne ein Buch vor dem Schlafengehen.,lese,1419.5912804603577,1422.341444015503,1422.72478556633,None,1434.7920794487,1435.8088119029999,1436.2088570594788,None,./data/Subject_08/Session_02/Exp_data/2020_Aug_05_1115/rec_QA_run_00_block_001_trial_012.wav,08,02,English,A2,True,False,True,False,False,True,True,True,True,True,True,True,No,No,No,No,No,No,2020_Aug_05_1115,nibs_stage_1,3.2.3,60.001001374744476,
0,0,0,0,1,0,1,0,13,0,13,0,,,,,,,,,,,,,,,,,,,,,,,,,Listen to the question and speak out your answer!,1439.24294090271,None,1439.2083978652954,1441.242420911789,Ein Regenbogen besteht aus vielen Farben.,besteht,1440.62571144104,None,1443.692530632019,None,1455.826509475708,None,1457.2433469295502,None,./data/Subject_08/Session_02/Exp_data/2020_Aug_05_1115/rec_QA_run_00_block_001_trial_013.wav,08,02,English,A2,True,False,True,False,False,True,True,True,True,True,True,True,No,No,No,No,No,No,2020_Aug_05_1115,nibs_stage_1,3.2.3,60.001001374744476,
0,0,0,0,1,0,1,0,14,0,14,0,,,,,,,,,,,,,,,,,,,,,,,,,Listen to the question and speak out your answer!,1460.2939519882202,None,1460.259449481964,1462.2935140132904,Ich gehe gerne alles in dem Geschäft um die Ecke einkaufen.,einkaufen,1461.643471479416,1465.093684911728,1465.4769506454468,None,1476.8444504737854,None,1478.261062860489,None,./data/Subject_08/Session_02/Exp_data/2020_Aug_05_1115/rec_QA_run_00_block_001_trial_014.wav,08,02,English,A2,True,False,True,False,False,True,True,True,True,True,True,True,No,No,No,No,No,No,2020_Aug_05_1115,nibs_stage_1,3.2.3,60.001001374744476,
0,0,0,0,1,0,1,0,15,0,15,0,,,,,,,,,,,,,,,,,,,,,,,,,Listen to the question and speak out your answer!,1481.3283278942108,None,1481.3106305599213,1483.3279719352722,"Er merkte sofort, dass wir versuchten, ihn zu belügen.",merkte,1482.7113745212555,1486.2280960083008,1486.6114716529846,None,1497.8953976631165,None,1499.3121328353882,None,./data/Subject_08/Session_02/Exp_data/2020_Aug_05_1115/rec_QA_run_00_block_001_trial_015.wav,08,02,English,A2,True,False,True,False,False,True,True,True,True,True,True,True,No,No,No,No,No,No,2020_Aug_05_1115,nibs_stage_1,3.2.3,60.001001374744476,
0,0,0,0,1,0,1,0,16,0,16,0,,,,,,,,,,,,,,,,,,,,,,,,,Listen to the question and speak out your answer!,1502.362380027771,None,1502.328378200531,1504.3623929023743,"Pinguine bewohnen die Antarktis, wie auch Robben und große Seelöwen.",bewohnen,1503.7123515605927,None,1508.7126076221466,None,1518.9131495952606,1519.9299249649048,1520.3298978805542,None,./data/Subject_08/Session_02/Exp_data/2020_Aug_05_1115/rec_QA_run_00_block_001_trial_016.wav,08,02,English,A2,True,False,True,False,False,True,True,True,True,True,True,True,No,No,No,No,No,No,2020_Aug_05_1115,nibs_stage_1,3.2.3,60.001001374744476,
0,0,0,0,1,0,1,0,17,0,17,0,,,,,,,,,,,,,,,,,,,,,,,,,Listen to the question and speak out your answer!,1523.3806869983673,None,1523.346140384674,1525.3801460266113,Er antwortete schnell auf meine Frage.,antwortete,1524.7300436496735,1527.1802699565887,1527.5969474315643,None,1539.9309134483337,None,1541.3476629257202,None,./data/Subject_08/Session_02/Exp_data/2020_Aug_05_1115/rec_QA_run_00_block_001_trial_017.wav,08,02,English,A2,True,False,True,False,False,True,True,True,True,True,True,True,No,No,No,No,No,No,2020_Aug_05_1115,nibs_stage_1,3.2.3,60.001001374744476,
0,0,0,0,1,0,1,0,18,0,18,0,,,,,,,,,,,,,,,,,,,,,,,,,Listen to the question and speak out your answer!,1544.4152598381042,None,1544.380693912506,1546.4145810604095,Alexander Bell hat das Telefon erfunden.,erfunden,1545.7980206012726,1548.514806985855,1548.8980784416199,1549.9148349761963,1560.9653606414795,None,1562.3820989131927,None,./data/Subject_08/Session_02/Exp_data/2020_Aug_05_1115/rec_QA_run_00_block_001_trial_018.wav,08,02,English,A2,True,False,True,False,False,True,True,True,True,True,True,True,No,No,No,No,No,No,2020_Aug_05_1115,nibs_stage_1,3.2.3,60.001001374744476,
0,0,0,0,1,0,1,0,19,0,19,0,,,,,,,,,,,,,,,,,,,,,,,,,Listen to the question and speak out your answer!,1565.4506058692932,None,1565.4316504001617,1567.4489328861237,Der Sturm entlaubte alle Bäume in unserem Garten.,entlaubte,1566.8323285579681,1570.049150943756,1570.3991906642914,1571.4159288406372,1582.0331144332886,None,1583.449991941452,None,./data/Subject_08/Session_02/Exp_data/2020_Aug_05_1115/rec_QA_run_00_block_001_trial_019.wav,08,02,English,A2,True,False,True,False,False,True,True,True,True,True,True,True,No,No,No,No,No,No,2020_Aug_05_1115,nibs_stage_1,3.2.3,60.001001374744476,
0,0,0,0,1,0,1,0,20,0,20,0,,,,,,,,,,,,,,,,,,,,,,,,,Listen to the question and speak out your answer!,1586.5339930057526,None,1586.4994235038757,1588.5334689617157,Ich habe meine Schuhe für die Hochzeit geputzt.,geputzt,1587.9167566299438,None,1590.9502425193787,None,1603.1176614761353,None,1604.5343010425568,None,./data/Subject_08/Session_02/Exp_data/2020_Aug_05_1115/rec_QA_run_00_block_001_trial_020.wav,08,02,English,A2,True,False,True,False,False,True,True,True,True,True,True,True,No,No,No,No,No,No,2020_Aug_05_1115,nibs_stage_1,3.2.3,60.001001374744476,
0,0,0,0,1,0,1,0,21,0,21,0,,,,,,,,,,,,,,,,,,,,,,,,,Listen to the question and speak out your answer!,1607.567869901657,None,1607.5338578224182,1609.5678958892822,Ich konnte meine Brille nicht finden.,finden,1608.9512796401978,1611.001294851303,1611.3513226509094,None,1624.1519985198975,None,1625.5687160491943,None,./data/Subject_08/Session_02/Exp_data/2020_Aug_05_1115/rec_QA_run_00_block_001_trial_021.wav,08,02,English,A2,True,False,True,False,False,True,True,True,True,True,True,True,No,No,No,No,No,No,2020_Aug_05_1115,nibs_stage_1,3.2.3,60.001001374744476,
0,0,0,0,1,0,1,0,22,0,22,0,,,,,,,,,,,,,,,,,,,,,,,,,Listen to the question and speak out your answer!,1628.619369983673,None,1628.5849463939667,1630.619001865387,Das juristische Staatsexamen in Deutschland ist schwer zu bestehen.,bestehen,1629.9692025184631,None,1634.4025194644928,None,1645.169991493225,None,1646.5864799022675,None,./data/Subject_08/Session_02/Exp_data/2020_Aug_05_1115/rec_QA_run_00_block_001_trial_022.wav,08,02,English,A2,True,False,True,False,False,True,True,True,True,True,True,True,No,No,No,No,No,No,2020_Aug_05_1115,nibs_stage_1,3.2.3,60.001001374744476,
0,0,0,0,1,0,1,0,23,0,23,0,,,,,,,,,,,,,,,,,,,,,,,,,Listen to the question and speak out your answer!,1649.653832912445,None,1649.61936378479,1651.653429031372,Der Lehrer unterrichtet Schüler und bringt ihnen verschiedene Dinge bei.,unterrichtet,1651.0367064476013,1655.086951971054,1655.470309495926,None,1666.2375104427338,None,1667.6542389392853,None,./data/Subject_08/Session_02/Exp_data/2020_Aug_05_1115/rec_QA_run_00_block_001_trial_023.wav,08,02,English,A2,True,False,True,False,False,True,True,True,True,True,True,True,No,No,No,No,No,No,2020_Aug_05_1115,nibs_stage_1,3.2.3,60.001001374744476,
0,0,0,0,1,0,1,0,24,0,24,0,,,,,,,,,,,,,,,,,,,,,,,,,Listen to the question and speak out your answer!,1670.7049629688263,None,1670.6704514026642,1672.704428911209,"Siehst du! Ich habe dir gesagt, dass es regnen würde.",gesagt,1672.087804555893,1675.5047459602356,1675.888013601303,None,1687.2719285488129,None,1688.6886849403381,None,./data/Subject_08/Session_02/Exp_data/2020_Aug_05_1115/rec_QA_run_00_block_001_trial_024.wav,08,02,English,A2,True,False,True,False,False,True,True,True,True,True,True,True,No,No,No,No,No,No,2020_Aug_05_1115,nibs_stage_1,3.2.3,60.001001374744476,
