run.thisRepN,run.thisTrialN,run.thisN,run.thisIndex,QA_block.thisRepN,QA_block.thisTrialN,QA_block.thisN,QA_block.thisIndex,QA_trial.thisRepN,QA_trial.thisTrialN,QA_trial.thisN,QA_trial.thisIndex,fade_in_text.text,fade_in_text.started,fade_in_text.stopped,RS_intro_title.started,RS_intro_title.stopped,RS_intro_text.text,RS_intro_text.started,RS_intro_text.stopped,RS_intro_audio.started,RS_intro_audio.stopped,RS_rec_text.text,RS_rec_text.started,RS_rec_text.stopped,Pause_cont.started,Pause_cont.stopped,QA_intro_title.started,QA_intro_title.stopped,QA_intro_text.text,QA_intro_text.started,QA_intro_text.stopped,QA_intro_audio.started,QA_intro_audio.stopped,QA_intro_cont.started,QA_intro_cont.stopped,QA_rec_text.text,QA_rec_text.started,QA_rec_text.stopped,QA_rec_beep_hint.started,QA_rec_beep_hint.stopped,QA_rec_question.sen_text,QA_rec_question.cen_text,QA_rec_question.started,QA_rec_question.stopped,QA_rec_beep_start.started,QA_rec_beep_start.stopped,QA_rec_beep_end.started,QA_rec_beep_end.stopped,QA_rec_break.started,QA_rec_break.stopped,filename,participant,session,First language,German level,Full_screen,Instruction,Intro,Artifact,Cali_pre,Fade_in_out,Artifact_within,Resting_State,QA,Pause,Cali_post,End,Breakpoint_Cali_pre_trial,Breakpoint_Run,Breakpoint_RS_block,Breakpoint_QA_block,Breakpoint_QA_trial,Breakpoint_Cali_post_trial,date,expName,psychopyVersion,frameRate,
1,0,1,0,0,0,0,0,0,0,0,0,Please remain seated until further instruction via the earphone.,71.43714118003845,None,281.8980212211609,None," - Task: Keep seated and relaxed with either      
             opening or closing eyes                  
 - Beep sound with decreasing pitch: Block finish 
",281.8980212211609,None,281.8825204372406,None,"Please keep relaxed and open your eyes.
Note: Blinking is allowed.",304.9160180091858,484.92519521713257,488.2920460700989,None,502.49275302886963,None," - Task: Listen to the question& Speak out answer 
 - Melodious beep sound: Trial start              
 - Silent sound (blank): censored word            
 - Beep sound with increasing pitch: Rec. start   
 - Beep sound with decreasing pitch: Rec. finish  
",502.49275302886963,None,502.4940893650055,None,541.8783850669861,None,Listen to the question and speak out your answer!,545.2118680477142,None,545.1965081691742,547.2120051383972,"Es ist ratsam, auch das Urteil anderer zu hören.",hören,546.5952310562134,None,550.1455011367798,None,561.7960991859436,562.7963221073151,563.196090221405,564.1962170600891,./data/Subject_03/Session_03/Exp_data/2020_Jul_20_1148/rec_QA_run_01_block_000_trial_000.wav,03,03,English,A2,True,False,True,False,False,True,True,True,True,True,True,True,No,1,No,No,No,No,2020_Jul_20_1148,nibs_stage_1,3.2.3,59.99156116936447,
1,0,1,0,0,0,0,0,1,0,1,0,,,,,,,,,,,,,,,,,,,,,,,,,Listen to the question and speak out your answer!,566.2630250453949,None,566.2472414970398,568.2464230060577,"Da drüben raucht es, wir sollten die Feuerwehr holen.",raucht,567.6297152042389,570.9799020290375,571.3799431324005,None,582.8305730819702,None,584.2306010723114,585.230651140213,./data/Subject_03/Session_03/Exp_data/2020_Jul_20_1148/rec_QA_run_01_block_000_trial_001.wav,03,03,English,A2,True,False,True,False,False,True,True,True,True,True,True,True,No,1,No,No,No,No,2020_Jul_20_1148,nibs_stage_1,3.2.3,59.99156116936447,
1,0,1,0,0,0,0,0,2,0,2,0,,,,,,,,,,,,,,,,,,,,,,,,,Listen to the question and speak out your answer!,587.3145060539246,None,587.2983496189117,589.297520160675,"Meine Geschichte ist wahr, ich habe keine Lügen erzählt.",erzählt,588.6808371543884,591.9977099895477,592.3975942134857,None,603.8816239833832,None,605.2816190719604,606.2817740440369,./data/Subject_03/Session_03/Exp_data/2020_Jul_20_1148/rec_QA_run_01_block_000_trial_002.wav,03,03,English,A2,True,False,True,False,False,True,True,True,True,True,True,True,No,1,No,No,No,No,2020_Jul_20_1148,nibs_stage_1,3.2.3,59.99156116936447,
1,0,1,0,0,0,0,0,3,0,3,0,,,,,,,,,,,,,,,,,,,,,,,,,Listen to the question and speak out your answer!,608.3486840724945,None,608.3327884674072,610.3319501876831,Sie hat schon eine ganze Reihe Bilder gemalt.,gemalt,609.7319350242615,None,612.8154911994934,None,624.9327251911163,None,626.332818031311,627.3328340053558,./data/Subject_03/Session_03/Exp_data/2020_Jul_20_1148/rec_QA_run_01_block_000_trial_003.wav,03,03,English,A2,True,False,True,False,False,True,True,True,True,True,True,True,No,1,No,No,No,No,2020_Jul_20_1148,nibs_stage_1,3.2.3,59.99156116936447,
1,0,1,0,0,0,0,0,4,0,4,0,,,,,,,,,,,,,,,,,,,,,,,,,Listen to the question and speak out your answer!,629.3827250003815,None,629.3671834468842,631.3664140701294,"In Monaten ohne Regen trocknet die Erde so aus, dass sie ganz staubig wird.",staubig,630.7664670944214,635.4665920734406,635.88329911232,636.8832621574402,645.9672181606293,None,647.3671960830688,648.3672552108765,./data/Subject_03/Session_03/Exp_data/2020_Jul_20_1148/rec_QA_run_01_block_000_trial_004.wav,03,03,English,A2,True,False,True,False,False,True,True,True,True,True,True,True,No,1,No,No,No,No,2020_Jul_20_1148,nibs_stage_1,3.2.3,59.99156116936447,
1,0,1,0,0,0,0,0,5,0,5,0,,,,,,,,,,,,,,,,,,,,,,,,,Listen to the question and speak out your answer!,650.4341571331024,None,650.4182796478271,652.4176580905914,Die Milch riecht verdorben.,riecht,651.8007941246033,653.4175350666046,653.8175630569458,None,667.0018260478973,None,668.4016900062561,669.4017901420593,./data/Subject_03/Session_03/Exp_data/2020_Jul_20_1148/rec_QA_run_01_block_000_trial_005.wav,03,03,English,A2,True,False,True,False,False,True,True,True,True,True,True,True,No,1,No,No,No,No,2020_Jul_20_1148,nibs_stage_1,3.2.3,59.99156116936447,
1,0,1,0,0,0,0,0,6,0,6,0,,,,,,,,,,,,,,,,,,,,,,,,,Listen to the question and speak out your answer!,671.4521191120148,None,671.4363775253296,673.4516091346741,Das neue Teammitglied wurde über die Situation informiert.,informiert,672.8350031375885,676.5017631053925,676.9018020629883,677.9019269943237,688.0360181331635,None,689.4362261295319,690.436056137085,./data/Subject_03/Session_03/Exp_data/2020_Jul_20_1148/rec_QA_run_01_block_000_trial_006.wav,03,03,English,A2,True,False,True,False,False,True,True,True,True,True,True,True,No,1,No,No,No,No,2020_Jul_20_1148,nibs_stage_1,3.2.3,59.99156116936447,
1,0,1,0,0,0,0,0,7,0,7,0,,,,,,,,,,,,,,,,,,,,,,,,,Listen to the question and speak out your answer!,692.5026822090149,None,692.4870805740356,694.5028200149536,"Melanie sieht so schlecht, sie braucht eine Brille.",braucht,693.8860311508179,696.8028330802917,697.2028691768646,None,709.0868980884552,710.086935043335,710.486955165863,711.4870312213898,./data/Subject_03/Session_03/Exp_data/2020_Jul_20_1148/rec_QA_run_01_block_000_trial_007.wav,03,03,English,A2,True,False,True,False,False,True,True,True,True,True,True,True,No,1,No,No,No,No,2020_Jul_20_1148,nibs_stage_1,3.2.3,59.99156116936447,
1,0,1,0,0,0,0,0,8,0,8,0,,,,,,,,,,,,,,,,,,,,,,,,,Listen to the question and speak out your answer!,713.5538830757141,None,713.5380556583405,715.5372271537781,Darf ich mit einem Scheck bezahlen?,bezahlen,714.9205441474915,None,717.1872611045837,718.1874461174011,730.1213381290436,None,731.5213100910187,732.5214610099792,./data/Subject_03/Session_03/Exp_data/2020_Jul_20_1148/rec_QA_run_01_block_000_trial_008.wav,03,03,English,A2,True,False,True,False,False,True,True,True,True,True,True,True,No,1,No,No,No,No,2020_Jul_20_1148,nibs_stage_1,3.2.3,59.99156116936447,
1,0,1,0,0,0,0,0,9,0,9,0,,,,,,,,,,,,,,,,,,,,,,,,,Listen to the question and speak out your answer!,734.5887560844421,None,734.5725514888763,736.5716681480408,"Da der Koffer bereits zu schwer ist, muss ich leichte Kleidung einpacken.",einpacken,735.9548661708832,740.038416147232,740.4551010131836,None,751.156149148941,None,752.5558371543884,753.555890083313,./data/Subject_03/Session_03/Exp_data/2020_Jul_20_1148/rec_QA_run_01_block_000_trial_009.wav,03,03,English,A2,True,False,True,False,False,True,True,True,True,True,True,True,No,1,No,No,No,No,2020_Jul_20_1148,nibs_stage_1,3.2.3,59.99156116936447,
1,0,1,0,0,0,0,0,10,0,10,0,,,,,,,,,,,,,,,,,,,,,,,,,Listen to the question and speak out your answer!,755.6394782066345,None,755.6236524581909,757.6227381229401,Ich denke immer an meine Kindheit zurück.,denke,757.006087064743,None,759.7061920166016,None,772.2068421840668,None,773.6069180965424,774.6069660186768,./data/Subject_03/Session_03/Exp_data/2020_Jul_20_1148/rec_QA_run_01_block_000_trial_010.wav,03,03,English,A2,True,False,True,False,False,True,True,True,True,True,True,True,No,1,No,No,No,No,2020_Jul_20_1148,nibs_stage_1,3.2.3,59.99156116936447,
1,0,1,0,0,0,0,0,11,0,11,0,,,,,,,,,,,,,,,,,,,,,,,,,Listen to the question and speak out your answer!,776.6906101703644,None,776.6747486591339,778.6739912033081,Unter solchen Bedingungen kann man den Umfang des Kreises leicht berechnen.,berechnen,778.0571620464325,782.1406791210175,782.5574049949646,None,793.257933139801,None,794.6579511165619,795.6580610275269,./data/Subject_03/Session_03/Exp_data/2020_Jul_20_1148/rec_QA_run_01_block_000_trial_011.wav,03,03,English,A2,True,False,True,False,False,True,True,True,True,True,True,True,No,1,No,No,No,No,2020_Jul_20_1148,nibs_stage_1,3.2.3,59.99156116936447,
1,0,1,0,0,0,0,0,12,0,12,0,,,,,,,,,,,,,,,,,,,,,,,,,Listen to the question and speak out your answer!,797.7416040897369,None,797.7258496284485,799.7249510288239,Er hat jahrzehntelang geraucht und seine Lunge schwer geschädigt.,geraucht,799.1082510948181,802.7084360122681,803.1251411437988,None,814.3092470169067,None,815.7092411518097,816.709400177002,./data/Subject_03/Session_03/Exp_data/2020_Jul_20_1148/rec_QA_run_01_block_000_trial_012.wav,03,03,English,A2,True,False,True,False,False,True,True,True,True,True,True,True,No,1,No,No,No,No,2020_Jul_20_1148,nibs_stage_1,3.2.3,59.99156116936447,
1,0,1,0,0,0,0,0,13,0,13,0,,,,,,,,,,,,,,,,,,,,,,,,,Listen to the question and speak out your answer!,818.7766840457916,None,818.7604005336761,820.7596600055695,"Wir hoffen, dass die Verhandlungen zu einem erfolgreichen Abschluss kommen.",hoffen,820.1595611572266,824.2430481910706,824.65980219841,None,835.3768210411072,None,836.7935512065887,None,./data/Subject_03/Session_03/Exp_data/2020_Jul_20_1148/rec_QA_run_01_block_000_trial_013.wav,03,03,English,A2,True,False,True,False,False,True,True,True,True,True,True,True,No,1,No,No,No,No,2020_Jul_20_1148,nibs_stage_1,3.2.3,59.99156116936447,
1,0,1,0,0,0,0,0,14,0,14,0,,,,,,,,,,,,,,,,,,,,,,,,,Listen to the question and speak out your answer!,839.793977022171,None,839.7779304981232,841.7938141822815,Du kannst auf meine Unterstützung rechnen.,rechnen,841.1771399974823,None,843.9439561367035,None,856.3778982162476,None,857.7946450710297,None,./data/Subject_03/Session_03/Exp_data/2020_Jul_20_1148/rec_QA_run_01_block_000_trial_014.wav,03,03,English,A2,True,False,True,False,False,True,True,True,True,True,True,True,No,1,No,No,No,No,2020_Jul_20_1148,nibs_stage_1,3.2.3,59.99156116936447,
1,0,1,0,0,0,0,0,15,0,15,0,,,,,,,,,,,,,,,,,,,,,,,,,Listen to the question and speak out your answer!,860.8623991012573,None,860.8457205295563,862.8614990711212,Entweder hat mir jemand die Geldtasche gestohlen oder ich habe sie verloren.,verloren,862.2448801994324,866.5951211452484,866.9784841537476,None,877.4456720352173,None,878.8624401092529,None,./data/Subject_03/Session_03/Exp_data/2020_Jul_20_1148/rec_QA_run_01_block_000_trial_015.wav,03,03,English,A2,True,False,True,False,False,True,True,True,True,True,True,True,No,1,No,No,No,No,2020_Jul_20_1148,nibs_stage_1,3.2.3,59.99156116936447,
1,0,1,0,0,0,0,0,16,0,16,0,,,,,,,,,,,,,,,,,,,,,,,,,Listen to the question and speak out your answer!,881.9301450252533,None,881.9134736061096,883.9293432235718,Ich habe das Bild an die Wand gehängt. ,gehängt,883.3126571178436,885.4630331993103,885.8461170196533,None,898.5134491920471,899.5301430225372,899.9301810264587,None,./data/Subject_03/Session_03/Exp_data/2020_Jul_20_1148/rec_QA_run_01_block_000_trial_016.wav,03,03,English,A2,True,False,True,False,False,True,True,True,True,True,True,True,No,1,No,No,No,No,2020_Jul_20_1148,nibs_stage_1,3.2.3,59.99156116936447,
1,0,1,0,0,0,0,0,17,0,17,0,,,,,,,,,,,,,,,,,,,,,,,,,Listen to the question and speak out your answer!,902.9980030059814,None,902.9645655155182,904.9970941543579,Beim Bäcker gibt es täglich frisches Brot.,gibt,904.3804061412811,None,907.380674123764,908.3972721099854,919.581246137619,920.5979480743408,920.9980661869049,None,./data/Subject_03/Session_03/Exp_data/2020_Jul_20_1148/rec_QA_run_01_block_000_trial_017.wav,03,03,English,A2,True,False,True,False,False,True,True,True,True,True,True,True,No,1,No,No,No,No,2020_Jul_20_1148,nibs_stage_1,3.2.3,59.99156116936447,
1,0,1,0,0,0,0,0,18,0,18,0,,,,,,,,,,,,,,,,,,,,,,,,,Listen to the question and speak out your answer!,924.0323321819305,None,924.0156786441803,926.0314462184906,Die Eltern haben das Geburtstagsgeschenk ihrer Tochter eingepackt.,eingepackt,925.414852142334,929.3652601242065,929.7483971118927,930.7651121616364,940.6156311035156,None,942.0323431491852,None,./data/Subject_03/Session_03/Exp_data/2020_Jul_20_1148/rec_QA_run_01_block_000_trial_018.wav,03,03,English,A2,True,False,True,False,False,True,True,True,True,True,True,True,No,1,No,No,No,No,2020_Jul_20_1148,nibs_stage_1,3.2.3,59.99156116936447,
1,0,1,0,0,0,0,0,19,0,19,0,,,,,,,,,,,,,,,,,,,,,,,,,Listen to the question and speak out your answer!,945.0992171764374,None,945.0667505264282,947.0992991924286,In wenigen Minuten erreichen wir Hamburg.,erreichen,946.4826171398163,None,949.649432182312,None,961.6833891868591,None,963.1001100540161,None,./data/Subject_03/Session_03/Exp_data/2020_Jul_20_1148/rec_QA_run_01_block_000_trial_019.wav,03,03,English,A2,True,False,True,False,False,True,True,True,True,True,True,True,No,1,No,No,No,No,2020_Jul_20_1148,nibs_stage_1,3.2.3,59.99156116936447,
1,0,1,0,0,0,0,0,20,0,20,0,,,,,,,,,,,,,,,,,,,,,,,,,Listen to the question and speak out your answer!,966.1354360580444,None,966.1179444789886,968.133759021759,In Österreich darf ein Präsident sechs Jahre regieren.,regieren,967.5170381069183,970.8674499988556,971.2504870891571,None,982.717808008194,983.7345690727234,984.1345920562744,None,./data/Subject_03/Session_03/Exp_data/2020_Jul_20_1148/rec_QA_run_01_block_000_trial_020.wav,03,03,English,A2,True,False,True,False,False,True,True,True,True,True,True,True,No,1,No,No,No,No,2020_Jul_20_1148,nibs_stage_1,3.2.3,59.99156116936447,
1,0,1,0,0,0,0,0,21,0,21,0,,,,,,,,,,,,,,,,,,,,,,,,,Listen to the question and speak out your answer!,987.201886177063,None,987.1856396198273,989.2014801502228,Fortschritt und Naturschutz sollten kein Gegensatz sein.,sein,988.5847191810608,None,992.3850121498108,None,1003.7855930328369,None,1005.2023611068726,None,./data/Subject_03/Session_03/Exp_data/2020_Jul_20_1148/rec_QA_run_01_block_000_trial_021.wav,03,03,English,A2,True,False,True,False,False,True,True,True,True,True,True,True,No,1,No,No,No,No,2020_Jul_20_1148,nibs_stage_1,3.2.3,59.99156116936447,
1,0,1,0,0,0,0,0,22,0,22,0,,,,,,,,,,,,,,,,,,,,,,,,,Listen to the question and speak out your answer!,1008.2357602119446,None,1008.2200956344604,1010.2359340190887,Er hilft der alten Frau beim Einsteigen ins Auto.,hilft,1009.619225025177,1012.8360559940338,1013.2194180488586,1014.2361371517181,1024.8200221061707,None,1026.2368471622467,None,./data/Subject_03/Session_03/Exp_data/2020_Jul_20_1148/rec_QA_run_01_block_000_trial_022.wav,03,03,English,A2,True,False,True,False,False,True,True,True,True,True,True,True,No,1,No,No,No,No,2020_Jul_20_1148,nibs_stage_1,3.2.3,59.99156116936447,
1,0,1,0,0,0,0,0,23,0,23,0,,,,,,,,,,,,,,,,,,,,,,,,,Listen to the question and speak out your answer!,1029.3043251037598,None,1029.2711634635925,1031.303719997406,"Wenn ich im Unterricht aufpasse, werde ich den Test sicher bestehen.",aufpasse,1030.687087059021,None,1034.8205749988556,None,1045.8877789974213,1046.9045050144196,1047.304573059082,None,./data/Subject_03/Session_03/Exp_data/2020_Jul_20_1148/rec_QA_run_01_block_000_trial_023.wav,03,03,English,A2,True,False,True,False,False,True,True,True,True,True,True,True,No,1,No,No,No,No,2020_Jul_20_1148,nibs_stage_1,3.2.3,59.99156116936447,
1,0,1,0,0,0,0,0,24,0,24,0,,,,,,,,,,,,,,,,,,,,,,,,,Listen to the question and speak out your answer!,1050.3380751609802,None,1050.322265625,1052.3380281925201,Ich gratuliere dir zum Bestehen dieser schwierigen Prüfung.,gratuliere,1051.72150015831,None,1055.5551080703735,None,1066.922327041626,None,1068.338891029358,None,./data/Subject_03/Session_03/Exp_data/2020_Jul_20_1148/rec_QA_run_01_block_000_trial_024.wav,03,03,English,A2,True,False,True,False,False,True,True,True,True,True,True,True,No,1,No,No,No,No,2020_Jul_20_1148,nibs_stage_1,3.2.3,59.99156116936447,
1,0,1,0,0,0,0,0,,,,,,,,,,,,,,,,,,1072.3890891075134,None,,,,,,,,,,,,,,,,,,,,,,,,,,03,03,English,A2,True,False,True,False,False,True,True,True,True,True,True,True,No,1,No,No,No,No,2020_Jul_20_1148,nibs_stage_1,3.2.3,59.99156116936447,
1,0,1,0,1,0,1,0,0,0,0,0,,,,,,,,,,,,,,,,,,,,,,,,,Listen to the question and speak out your answer!,1086.6916551589966,None,1086.6584622859955,1088.690006017685,Auf Lavaerde wachsen sehr gute Weintrauben.,wachsen,1088.0733320713043,None,1091.6068270206451,None,1103.2742052078247,None,1104.690847158432,None,./data/Subject_03/Session_03/Exp_data/2020_Jul_20_1148/rec_QA_run_01_block_001_trial_000.wav,03,03,English,A2,True,False,True,False,False,True,True,True,True,True,True,True,No,1,No,No,No,No,2020_Jul_20_1148,nibs_stage_1,3.2.3,59.99156116936447,
1,0,1,0,1,0,1,0,1,0,1,0,,,,,,,,,,,,,,,,,,,,,,,,,Listen to the question and speak out your answer!,1107.7416701316833,None,1107.708666563034,1109.7411081790924,"Wenn ich mich gestresst fühle, muss ich mich selbst daran erinnern, ruhig zu bleiben.",erinnern,1109.091096162796,None,1114.1913452148438,None,1124.2919290065765,1125.308588027954,1125.7086071968079,None,./data/Subject_03/Session_03/Exp_data/2020_Jul_20_1148/rec_QA_run_01_block_001_trial_001.wav,03,03,English,A2,True,False,True,False,False,True,True,True,True,True,True,True,No,1,No,No,No,No,2020_Jul_20_1148,nibs_stage_1,3.2.3,59.99156116936447,
1,0,1,0,1,0,1,0,2,0,2,0,,,,,,,,,,,,,,,,,,,,,,,,,Listen to the question and speak out your answer!,1128.7927601337433,None,1128.7596805095673,1130.792209148407,Der Spender möchte anonym bleiben.,bleiben,1130.1756131649017,None,1132.642310142517,None,1145.3763031959534,1146.3930292129517,1146.7930722236633,None,./data/Subject_03/Session_03/Exp_data/2020_Jul_20_1148/rec_QA_run_01_block_001_trial_002.wav,03,03,English,A2,True,False,True,False,False,True,True,True,True,True,True,True,No,1,No,No,No,No,2020_Jul_20_1148,nibs_stage_1,3.2.3,59.99156116936447,
1,0,1,0,1,0,1,0,3,0,3,0,,,,,,,,,,,,,,,,,,,,,,,,,Listen to the question and speak out your answer!,1149.8432841300964,None,1149.810765504837,1151.8432869911194,Wir bestellten ein stück Hassnuss Kuchen zum Dessert.,bestellten,1151.1932849884033,None,1154.82679605484,None,1166.3940980434418,None,1167.810792207718,None,./data/Subject_03/Session_03/Exp_data/2020_Jul_20_1148/rec_QA_run_01_block_001_trial_003.wav,03,03,English,A2,True,False,True,False,False,True,True,True,True,True,True,True,No,1,No,No,No,No,2020_Jul_20_1148,nibs_stage_1,3.2.3,59.99156116936447,
1,0,1,0,1,0,1,0,4,0,4,0,,,,,,,,,,,,,,,,,,,,,,,,,Listen to the question and speak out your answer!,1170.8792641162872,None,1170.8618795871735,1172.8777940273285,"Die Firma hat einen Fachmann hinzugezogen, um das Netzwerk zu reparieren.",reparieren,1172.261045217514,None,1177.4279890060425,None,1187.445186138153,None,1188.8619830608368,None,./data/Subject_03/Session_03/Exp_data/2020_Jul_20_1148/rec_QA_run_01_block_001_trial_004.wav,03,03,English,A2,True,False,True,False,False,True,True,True,True,True,True,True,No,1,No,No,No,No,2020_Jul_20_1148,nibs_stage_1,3.2.3,59.99156116936447,
1,0,1,0,1,0,1,0,5,0,5,0,,,,,,,,,,,,,,,,,,,,,,,,,Listen to the question and speak out your answer!,1191.9294030666351,None,1191.896380662918,1193.9288341999054,Der Lehrer unterrichtet Schüler und bringt ihnen verschiedene Dinge bei.,unterrichtet,1193.3121449947357,None,1197.7457280158997,None,1208.5128581523895,1209.5296680927277,1209.9296782016754,None,./data/Subject_03/Session_03/Exp_data/2020_Jul_20_1148/rec_QA_run_01_block_001_trial_005.wav,03,03,English,A2,True,False,True,False,False,True,True,True,True,True,True,True,No,1,No,No,No,No,2020_Jul_20_1148,nibs_stage_1,3.2.3,59.99156116936447,
1,0,1,0,1,0,1,0,6,0,6,0,,,,,,,,,,,,,,,,,,,,,,,,,Listen to the question and speak out your answer!,1212.9471411705017,None,1212.9140405654907,1214.9465990066528,Das Fleisch wurde über dem offenen Feuer gegrillt.,gegrillt,1214.296658039093,1217.3133912086487,1217.697056055069,None,1229.4973061084747,None,1230.9141352176666,None,./data/Subject_03/Session_03/Exp_data/2020_Jul_20_1148/rec_QA_run_01_block_001_trial_006.wav,03,03,English,A2,True,False,True,False,False,True,True,True,True,True,True,True,No,1,No,No,No,No,2020_Jul_20_1148,nibs_stage_1,3.2.3,59.99156116936447,
1,0,1,0,1,0,1,0,7,0,7,0,,,,,,,,,,,,,,,,,,,,,,,,,Listen to the question and speak out your answer!,1233.9976561069489,None,1233.9651885032654,1235.9976720809937,Der Flug nach New York wird mehrere Stunden dauern.,dauern,1235.347655057907,1238.431282043457,1238.847843170166,None,1250.5483751296997,None,1251.9651770591736,None,./data/Subject_03/Session_03/Exp_data/2020_Jul_20_1148/rec_QA_run_01_block_001_trial_007.wav,03,03,English,A2,True,False,True,False,False,True,True,True,True,True,True,True,No,1,No,No,No,No,2020_Jul_20_1148,nibs_stage_1,3.2.3,59.99156116936447,
1,0,1,0,1,0,1,0,8,0,8,0,,,,,,,,,,,,,,,,,,,,,,,,,Listen to the question and speak out your answer!,1255.0338652133942,None,1254.999671459198,1257.0323090553284,Das Flugzeug fliegt den vorgeschriebenen Kurs.,fliegt,1256.4155251979828,None,1259.7822921276093,None,1271.6162099838257,None,1273.0329501628876,None,./data/Subject_03/Session_03/Exp_data/2020_Jul_20_1148/rec_QA_run_01_block_001_trial_008.wav,03,03,English,A2,True,False,True,False,False,True,True,True,True,True,True,True,No,1,No,No,No,No,2020_Jul_20_1148,nibs_stage_1,3.2.3,59.99156116936447,
1,0,1,0,1,0,1,0,9,0,9,0,,,,,,,,,,,,,,,,,,,,,,,,,Listen to the question and speak out your answer!,1276.0664570331573,None,1276.0341415405273,1278.0665690898895,"Ich gehe ins Museum, um mir die Gemälde anzusehen.",anzusehen,1277.4501521587372,1280.7669191360474,1281.150157213211,None,1292.650642156601,1293.667384147644,1294.067491054535,None,./data/Subject_03/Session_03/Exp_data/2020_Jul_20_1148/rec_QA_run_01_block_001_trial_009.wav,03,03,English,A2,True,False,True,False,False,True,True,True,True,True,True,True,No,1,No,No,No,No,2020_Jul_20_1148,nibs_stage_1,3.2.3,59.99156116936447,
1,0,1,0,1,0,1,0,10,0,10,0,,,,,,,,,,,,,,,,,,,,,,,,,Listen to the question and speak out your answer!,1297.1183550357819,None,1297.0851316452026,1299.1179292201996,Die Hausfrau muss jeden Tag Lebensmittel einkaufen.,einkaufen,1298.4676160812378,1301.6844301223755,1302.0678081512451,None,1313.668513059616,None,1315.085172176361,None,./data/Subject_03/Session_03/Exp_data/2020_Jul_20_1148/rec_QA_run_01_block_001_trial_010.wav,03,03,English,A2,True,False,True,False,False,True,True,True,True,True,True,True,No,1,No,No,No,No,2020_Jul_20_1148,nibs_stage_1,3.2.3,59.99156116936447,
1,0,1,0,1,0,1,0,11,0,11,0,,,,,,,,,,,,,,,,,,,,,,,,,Listen to the question and speak out your answer!,1318.1368172168732,None,1318.1195476055145,1320.135397195816,"Leichte Sprache ist eine Hilfe für Menschen , die keine schwierige Sprache verstehen.",verstehen,1319.4853920936584,None,1324.9190561771393,1325.935758113861,1334.6861510276794,None,1336.102821111679,None,./data/Subject_03/Session_03/Exp_data/2020_Jul_20_1148/rec_QA_run_01_block_001_trial_011.wav,03,03,English,A2,True,False,True,False,False,True,True,True,True,True,True,True,No,1,No,No,No,No,2020_Jul_20_1148,nibs_stage_1,3.2.3,59.99156116936447,
1,0,1,0,1,0,1,0,12,0,12,0,,,,,,,,,,,,,,,,,,,,,,,,,Listen to the question and speak out your answer!,1339.1701390743256,None,1339.1539804935455,1341.1698470115662,"Der Assistent ging zurück ins Büro, um die Dokumente zu holen.",holen,1340.5531640052795,1344.536702156067,1344.8867239952087,1345.9033920764923,1355.7539830207825,None,1357.1706721782684,None,./data/Subject_03/Session_03/Exp_data/2020_Jul_20_1148/rec_QA_run_01_block_001_trial_012.wav,03,03,English,A2,True,False,True,False,False,True,True,True,True,True,True,True,No,1,No,No,No,No,2020_Jul_20_1148,nibs_stage_1,3.2.3,59.99156116936447,
1,0,1,0,1,0,1,0,13,0,13,0,,,,,,,,,,,,,,,,,,,,,,,,,Listen to the question and speak out your answer!,1360.2220251560211,None,1360.205111503601,1362.2209661006927,Sie hat neue Laufschuhe bekommen.,bekommen,1361.6042351722717,None,1364.0376331806183,None,1376.8050651550293,None,1378.2217960357666,None,./data/Subject_03/Session_03/Exp_data/2020_Jul_20_1148/rec_QA_run_01_block_001_trial_013.wav,03,03,English,A2,True,False,True,False,False,True,True,True,True,True,True,True,No,1,No,No,No,No,2020_Jul_20_1148,nibs_stage_1,3.2.3,59.99156116936447,
1,0,1,0,1,0,1,0,14,0,14,0,,,,,,,,,,,,,,,,,,,,,,,,,Listen to the question and speak out your answer!,1381.2737021446228,None,1381.2561736106873,1383.2720320224762,Das Handbuch liefert eine Beschreibung des Geräts.,liefert,1382.655356168747,1385.6389441490173,1386.0221722126007,None,1397.8230152130127,None,1399.2395679950714,1400.2728381156921,./data/Subject_03/Session_03/Exp_data/2020_Jul_20_1148/rec_QA_run_01_block_001_trial_014.wav,03,03,English,A2,True,False,True,False,False,True,True,True,True,True,True,True,No,1,No,No,No,No,2020_Jul_20_1148,nibs_stage_1,3.2.3,59.99156116936447,
1,0,1,0,1,0,1,0,15,0,15,0,,,,,,,,,,,,,,,,,,,,,,,,,Listen to the question and speak out your answer!,1402.324580192566,None,1402.3071875572205,1404.323135137558,"Der Fischer musste das Netz einziehen, ohne etwas gefangen zu haben.",einziehen,1403.7064611911774,None,1407.9736511707306,None,1418.873897075653,None,1420.290645122528,None,./data/Subject_03/Session_03/Exp_data/2020_Jul_20_1148/rec_QA_run_01_block_001_trial_015.wav,03,03,English,A2,True,False,True,False,False,True,True,True,True,True,True,True,No,1,No,No,No,No,2020_Jul_20_1148,nibs_stage_1,3.2.3,59.99156116936447,
1,0,1,0,1,0,1,0,16,0,16,0,,,,,,,,,,,,,,,,,,,,,,,,,Listen to the question and speak out your answer!,1423.3581540584564,None,1423.3250706195831,1425.35764503479,Der frühe Vogel kann den Wurm fangen.,fangen,1424.7075440883636,1427.0244300365448,1427.4410200119019,None,1439.9083321094513,None,1441.3251430988312,None,./data/Subject_03/Session_03/Exp_data/2020_Jul_20_1148/rec_QA_run_01_block_001_trial_016.wav,03,03,English,A2,True,False,True,False,False,True,True,True,True,True,True,True,No,1,No,No,No,No,2020_Jul_20_1148,nibs_stage_1,3.2.3,59.99156116936447,
1,0,1,0,1,0,1,0,17,0,17,0,,,,,,,,,,,,,,,,,,,,,,,,,Listen to the question and speak out your answer!,1444.3924732208252,None,1444.3594756126404,1446.3919870853424,Moni hat eine Fahrkarte für den Zug nach Salzburg gekauft.,gekauft,1445.7752931118011,None,1449.9088690280914,1450.9255740642548,1460.9762840270996,None,1462.3928170204163,None,./data/Subject_03/Session_03/Exp_data/2020_Jul_20_1148/rec_QA_run_01_block_001_trial_017.wav,03,03,English,A2,True,False,True,False,False,True,True,True,True,True,True,True,No,1,No,No,No,No,2020_Jul_20_1148,nibs_stage_1,3.2.3,59.99156116936447,
1,0,1,0,1,0,1,0,18,0,18,0,,,,,,,,,,,,,,,,,,,,,,,,,Listen to the question and speak out your answer!,1465.4278011322021,None,1465.4108664989471,1467.4600310325623,Ein Arzt behandelt kranke Leute in einer Praxis oder im Krankenhaus.,behandelt,1466.8098080158234,1471.259889125824,1471.60999417305,None,1482.0105512142181,1483.0272371768951,1483.427255153656,None,./data/Subject_03/Session_03/Exp_data/2020_Jul_20_1148/rec_QA_run_01_block_001_trial_018.wav,03,03,English,A2,True,False,True,False,False,True,True,True,True,True,True,True,No,1,No,No,No,No,2020_Jul_20_1148,nibs_stage_1,3.2.3,59.99156116936447,
1,0,1,0,1,0,1,0,19,0,19,0,,,,,,,,,,,,,,,,,,,,,,,,,Listen to the question and speak out your answer!,1486.5789000988007,None,1486.5616474151611,1488.5775480270386,In der Parfümerie riecht es sehr stark nach verschiedenen Düften.,riecht,1487.9608211517334,1491.7777361869812,1492.1277141571045,1493.1444220542908,1503.1616361141205,None,1504.5784900188446,None,./data/Subject_03/Session_03/Exp_data/2020_Jul_20_1148/rec_QA_run_01_block_001_trial_019.wav,03,03,English,A2,True,False,True,False,False,True,True,True,True,True,True,True,No,1,No,No,No,No,2020_Jul_20_1148,nibs_stage_1,3.2.3,59.99156116936447,
1,0,1,0,1,0,1,0,20,0,20,0,,,,,,,,,,,,,,,,,,,,,,,,,Listen to the question and speak out your answer!,1507.628701210022,None,1507.59614443779,1509.6288781166077,"Manchmal glaube ich, ich bin zu pessimistisch.",glaube,1509.0119349956512,None,1512.3787732124329,1513.3955631256104,1524.2127351760864,None,1525.6294610500336,None,./data/Subject_03/Session_03/Exp_data/2020_Jul_20_1148/rec_QA_run_01_block_001_trial_020.wav,03,03,English,A2,True,False,True,False,False,True,True,True,True,True,True,True,No,1,No,No,No,No,2020_Jul_20_1148,nibs_stage_1,3.2.3,59.99156116936447,
1,0,1,0,1,0,1,0,21,0,21,0,,,,,,,,,,,,,,,,,,,,,,,,,Listen to the question and speak out your answer!,1528.6470420360565,None,1528.613864660263,1530.6464340686798,Die Armbanduhr ist aus rostfreiem Stahl gefertigt und wird nicht rosten.,rosten,1529.9963581562042,None,1534.7300200462341,1535.746647119522,1545.1971671581268,None,1546.6139061450958,None,./data/Subject_03/Session_03/Exp_data/2020_Jul_20_1148/rec_QA_run_01_block_001_trial_021.wav,03,03,English,A2,True,False,True,False,False,True,True,True,True,True,True,True,No,1,No,No,No,No,2020_Jul_20_1148,nibs_stage_1,3.2.3,59.99156116936447,
1,0,1,0,1,0,1,0,22,0,22,0,,,,,,,,,,,,,,,,,,,,,,,,,Listen to the question and speak out your answer!,1549.6646242141724,None,1549.63179063797,1551.6641471385956,Tim sammelt Briefmarken und Münzen.,sammelt,1551.0474491119385,1553.4976131916046,1553.8809411525726,None,1566.248283147812,None,1567.6650111675262,None,./data/Subject_03/Session_03/Exp_data/2020_Jul_20_1148/rec_QA_run_01_block_001_trial_022.wav,03,03,English,A2,True,False,True,False,False,True,True,True,True,True,True,True,No,1,No,No,No,No,2020_Jul_20_1148,nibs_stage_1,3.2.3,59.99156116936447,
1,0,1,0,1,0,1,0,23,0,23,0,,,,,,,,,,,,,,,,,,,,,,,,,Listen to the question and speak out your answer!,1570.6990990638733,None,1570.6660385131836,1572.698566198349,Ich surfe gern im Internet und chatte mit Freunden.,chatte,1572.0818750858307,None,1575.5820851325989,1576.5987470149994,1587.249358177185,None,1588.6660799980164,None,./data/Subject_03/Session_03/Exp_data/2020_Jul_20_1148/rec_QA_run_01_block_001_trial_023.wav,03,03,English,A2,True,False,True,False,False,True,True,True,True,True,True,True,No,1,No,No,No,No,2020_Jul_20_1148,nibs_stage_1,3.2.3,59.99156116936447,
1,0,1,0,1,0,1,0,24,0,24,0,,,,,,,,,,,,,,,,,,,,,,,,,Listen to the question and speak out your answer!,1591.7338771820068,None,1591.700555562973,1593.733008146286,Sie holte ihre Einkäufe aus dem Korb.,holte,1593.1163291931152,1595.6332020759583,1596.0164771080017,None,1608.3171491622925,None,1609.7338981628418,None,./data/Subject_03/Session_03/Exp_data/2020_Jul_20_1148/rec_QA_run_01_block_001_trial_024.wav,03,03,English,A2,True,False,True,False,False,True,True,True,True,True,True,True,No,1,No,No,No,No,2020_Jul_20_1148,nibs_stage_1,3.2.3,59.99156116936447,
