run.thisRepN,run.thisTrialN,run.thisN,run.thisIndex,QA_block.thisRepN,QA_block.thisTrialN,QA_block.thisN,QA_block.thisIndex,QA_trial.thisRepN,QA_trial.thisTrialN,QA_trial.thisN,QA_trial.thisIndex,fade_in_text.text,fade_in_text.started,fade_in_text.stopped,RS_intro_title.started,RS_intro_title.stopped,RS_intro_text.text,RS_intro_text.started,RS_intro_text.stopped,RS_intro_audio.started,RS_intro_audio.stopped,RS_rec_text.text,RS_rec_text.started,RS_rec_text.stopped,Pause_cont.started,Pause_cont.stopped,QA_intro_title.started,QA_intro_title.stopped,QA_intro_text.text,QA_intro_text.started,QA_intro_text.stopped,QA_intro_audio.started,QA_intro_audio.stopped,QA_intro_cont.started,QA_intro_cont.stopped,QA_rec_text.text,QA_rec_text.started,QA_rec_text.stopped,QA_rec_beep_hint.started,QA_rec_beep_hint.stopped,QA_rec_question.sen_text,QA_rec_question.cen_text,QA_rec_question.started,QA_rec_question.stopped,QA_rec_beep_start.started,QA_rec_beep_start.stopped,QA_rec_beep_end.started,QA_rec_beep_end.stopped,QA_rec_break.started,QA_rec_break.stopped,filename,fade_out_text.text,fade_out_text.started,fade_out_text.stopped,participant,session,First language,German level,Full_screen,Instruction,Intro,Artifact,Cali_pre,Fade_in_out,Artifact_within,Resting_State,QA,Pause,Cali_post,End,Breakpoint_Cali_pre_trial,Breakpoint_Run,Breakpoint_RS_block,Breakpoint_QA_block,Breakpoint_QA_trial,Breakpoint_Cali_post_trial,date,expName,psychopyVersion,frameRate,
0,0,0,0,0,0,0,0,0,0,0,0,Please remain seated until further instruction via the earphone.,53.38851499557495,None,262.88268995285034,None," - Task: Keep seated and relaxed with either      
             opening or closing eyes                  
 - Beep sound with decreasing pitch: Block finish 
",262.88268995285034,None,262.866220664978,None,"Please keep relaxed and open your eyes.
Note: Blinking is allowed.",285.90056896209717,465.9101598262787,469.2600908279419,None,484.9946930408478,None," - Task: Listen to the question& Speak out answer 
 - Melodious beep sound: Trial start              
 - Silent sound (blank): censored word            
 - Beep sound with increasing pitch: Rec. start   
 - Beep sound with decreasing pitch: Rec. finish  
",484.9946930408478,None,484.9943210124969,None,524.3799889087677,None,Listen to the question and speak out your answer!,527.8800728321075,None,527.8801581382751,529.8800518512726,Man kann die salzige Luft riechen.,riechen,529.2634233474731,531.2468600273132,531.6468965053558,532.6469328403473,544.4476174354553,545.4476268291473,545.8476178646088,546.8476638793945,./data/Subject_03/Session_03/Exp_data/2020_Jul_20_1121/rec_QA_run_00_block_000_trial_000.wav,,,,03,03,English,A2,True,False,True,False,False,True,True,True,True,True,True,True,No,No,No,No,No,No,2020_Jul_20_1121,nibs_stage_1,3.2.3,60.018172998358715,
0,0,0,0,0,0,0,0,1,0,1,0,,,,,,,,,,,,,,,,,,,,,,,,,Listen to the question and speak out your answer!,548.9147770404816,None,548.9144556045532,550.9148919582367,"Schauen Sie nach draußen, der Schnee fällt.",fällt,550.2978054523468,552.8644690513611,553.2644423484802,None,565.4984325408935,None,566.8984198570251,567.899111032486,./data/Subject_03/Session_03/Exp_data/2020_Jul_20_1121/rec_QA_run_00_block_000_trial_001.wav,,,,03,03,English,A2,True,False,True,False,False,True,True,True,True,True,True,True,No,No,No,No,No,No,2020_Jul_20_1121,nibs_stage_1,3.2.3,60.018172998358715,
0,0,0,0,0,0,0,0,2,0,2,0,,,,,,,,,,,,,,,,,,,,,,,,,Listen to the question and speak out your answer!,569.9826610088348,None,569.9654345035552,571.9657258987427,Lisa kann schon mit großen Zahlen rechnen.,rechnen,571.3490435123443,None,574.3825284481048,None,586.5495234966278,None,587.9496068954468,None,./data/Subject_03/Session_03/Exp_data/2020_Jul_20_1121/rec_QA_run_00_block_000_trial_002.wav,,,,03,03,English,A2,True,False,True,False,False,True,True,True,True,True,True,True,No,No,No,No,No,No,2020_Jul_20_1121,nibs_stage_1,3.2.3,60.018172998358715,
0,0,0,0,0,0,0,0,3,0,3,0,,,,,,,,,,,,,,,,,,,,,,,,,Listen to the question and speak out your answer!,591.0169098377228,None,590.9998745441436,592.9998638629913,"Ich habe den Knopf gedrückt, um die Kaffeemaschine einzuschalten.",gedrückt,592.3833693504333,None,596.533362531662,None,607.5840674877167,None,608.984060049057,610.0010230541229,./data/Subject_03/Session_03/Exp_data/2020_Jul_20_1121/rec_QA_run_00_block_000_trial_003.wav,,,,03,03,English,A2,True,False,True,False,False,True,True,True,True,True,True,True,No,No,No,No,No,No,2020_Jul_20_1121,nibs_stage_1,3.2.3,60.018172998358715,
0,0,0,0,0,0,0,0,4,0,4,0,,,,,,,,,,,,,,,,,,,,,,,,,Listen to the question and speak out your answer!,612.0341908931732,None,612.0177916526794,614.0176000595093,Sam ist ein ehrlicher Mann und sagt immer die Wahrheit.,sagt,613.4176584720611,616.601096868515,617.001098537445,None,628.6350385189056,None,630.0517919063568,None,./data/Subject_03/Session_03/Exp_data/2020_Jul_20_1121/rec_QA_run_00_block_000_trial_004.wav,,,,03,03,English,A2,True,False,True,False,False,True,True,True,True,True,True,True,No,No,No,No,No,No,2020_Jul_20_1121,nibs_stage_1,3.2.3,60.018172998358715,
0,0,0,0,0,0,0,0,5,0,5,0,,,,,,,,,,,,,,,,,,,,,,,,,Listen to the question and speak out your answer!,633.0869629383087,None,633.0686895370483,635.085373878479,Kannst du bitte die Wäsche in die Sonne hängen?,hängen,634.4687563419342,636.8855600357056,637.2688175678253,None,649.6694275379181,None,651.0862619876862,None,./data/Subject_03/Session_03/Exp_data/2020_Jul_20_1121/rec_QA_run_00_block_000_trial_005.wav,,,,03,03,English,A2,True,False,True,False,False,True,True,True,True,True,True,True,No,No,No,No,No,No,2020_Jul_20_1121,nibs_stage_1,3.2.3,60.018172998358715,
0,0,0,0,0,0,0,0,6,0,6,0,,,,,,,,,,,,,,,,,,,,,,,,,Listen to the question and speak out your answer!,654.1207020282745,None,654.1033965587616,656.1196918487549,Peter interessiert sich sehr für Geschichte.,interessiert,655.5030933856964,None,658.6034854888916,None,670.7039834499359,None,672.1206288337708,None,./data/Subject_03/Session_03/Exp_data/2020_Jul_20_1121/rec_QA_run_00_block_000_trial_006.wav,,,,03,03,English,A2,True,False,True,False,False,True,True,True,True,True,True,True,No,No,No,No,No,No,2020_Jul_20_1121,nibs_stage_1,3.2.3,60.018172998358715,
0,0,0,0,0,0,0,0,7,0,7,0,,,,,,,,,,,,,,,,,,,,,,,,,Listen to the question and speak out your answer!,675.1883778572083,None,675.1541121482849,677.1875739097595,Die Stadt liegt nahe am Meer.,liegt,676.5709735393524,None,678.7377363681793,None,691.7717963695526,None,693.1884169578552,None,./data/Subject_03/Session_03/Exp_data/2020_Jul_20_1121/rec_QA_run_00_block_000_trial_007.wav,,,,03,03,English,A2,True,False,True,False,False,True,True,True,True,True,True,True,No,No,No,No,No,No,2020_Jul_20_1121,nibs_stage_1,3.2.3,60.018172998358715,
0,0,0,0,0,0,0,0,8,0,8,0,,,,,,,,,,,,,,,,,,,,,,,,,Listen to the question and speak out your answer!,696.2219378948212,None,696.1886339664459,698.2222280502319,Afrika liegt südlich von Europa .,liegt,697.6055554389953,700.1887550354004,700.5725175380707,None,712.7727295398712,None,714.1895380020142,None,./data/Subject_03/Session_03/Exp_data/2020_Jul_20_1121/rec_QA_run_00_block_000_trial_008.wav,,,,03,03,English,A2,True,False,True,False,False,True,True,True,True,True,True,True,No,No,No,No,No,No,2020_Jul_20_1121,nibs_stage_1,3.2.3,60.018172998358715,
0,0,0,0,0,0,0,0,9,0,9,0,,,,,,,,,,,,,,,,,,,,,,,,,Listen to the question and speak out your answer!,717.2566339969635,None,717.2396485328674,719.2566049098969,Du muss deine schmutzige Kleidung in der Wäscherei waschen.,waschen,718.6399644851684,None,722.1734694480896,None,733.840568447113,None,735.2572250366211,None,./data/Subject_03/Session_03/Exp_data/2020_Jul_20_1121/rec_QA_run_00_block_000_trial_009.wav,,,,03,03,English,A2,True,False,True,False,False,True,True,True,True,True,True,True,No,No,No,No,No,No,2020_Jul_20_1121,nibs_stage_1,3.2.3,60.018172998358715,
0,0,0,0,0,0,0,0,10,0,10,0,,,,,,,,,,,,,,,,,,,,,,,,,Listen to the question and speak out your answer!,738.3246140480042,None,738.2908530712127,740.3241908550262,"Um Omeltte zu machen, werde ich die Eier verrühren und dann braten.",braten,739.7075654506683,743.591001033783,743.9745265483856,744.991397857666,754.9082774162292,None,756.3250260353088,None,./data/Subject_03/Session_03/Exp_data/2020_Jul_20_1121/rec_QA_run_00_block_000_trial_010.wav,,,,03,03,English,A2,True,False,True,False,False,True,True,True,True,True,True,True,No,No,No,No,No,No,2020_Jul_20_1121,nibs_stage_1,3.2.3,60.018172998358715,
0,0,0,0,0,0,0,0,11,0,11,0,,,,,,,,,,,,,,,,,,,,,,,,,Listen to the question and speak out your answer!,759.3761389255524,None,759.3421225070953,761.3752799034119,Zum Geburtstag hat ihm Oma ein Buch mit vielen Bildern geschenkt.,geschenkt,760.725311422348,None,764.9255653858185,None,775.9426905155182,776.9594049453735,777.3595449924469,None,./data/Subject_03/Session_03/Exp_data/2020_Jul_20_1121/rec_QA_run_00_block_000_trial_011.wav,,,,03,03,English,A2,True,False,True,False,False,True,True,True,True,True,True,True,No,No,No,No,No,No,2020_Jul_20_1121,nibs_stage_1,3.2.3,60.018172998358715,
0,0,0,0,0,0,0,0,12,0,12,0,,,,,,,,,,,,,,,,,,,,,,,,,Listen to the question and speak out your answer!,780.4265449047089,None,780.3930290222168,782.4262850284576,Meine Großtante starb letztes Jahr und wurde neben ihrem Mann begraben.,begraben,781.8097604751587,None,786.4768654346466,None,797.0103785037994,None,798.4275660514832,None,./data/Subject_03/Session_03/Exp_data/2020_Jul_20_1121/rec_QA_run_00_block_000_trial_012.wav,,,,03,03,English,A2,True,False,True,False,False,True,True,True,True,True,True,True,No,No,No,No,No,No,2020_Jul_20_1121,nibs_stage_1,3.2.3,60.018172998358715,
0,0,0,0,0,0,0,0,13,0,13,0,,,,,,,,,,,,,,,,,,,,,,,,,Listen to the question and speak out your answer!,801.4614849090576,None,801.4441296577453,803.4608359336853,"Er merkte sofort, dass wir versuchten, ihn zu belügen.",merkte,802.8440834522247,806.3609478473663,806.7444294929504,None,818.0451573371887,None,819.4616389274597,None,./data/Subject_03/Session_03/Exp_data/2020_Jul_20_1121/rec_QA_run_00_block_000_trial_013.wav,,,,03,03,English,A2,True,False,True,False,False,True,True,True,True,True,True,True,No,No,No,No,No,No,2020_Jul_20_1121,nibs_stage_1,3.2.3,60.018172998358715,
0,0,0,0,0,0,0,0,14,0,14,0,,,,,,,,,,,,,,,,,,,,,,,,,Listen to the question and speak out your answer!,822.5293960571289,None,822.4955349445343,824.5285580158234,"Ich habe eine verletzte Hand, kannst du bitte die Knöpfe meiner Jacke öffnen?",öffnen,823.9118443965912,828.162348985672,828.5454365253448,None,839.1126524448395,840.1295149326324,840.5295288562775,None,./data/Subject_03/Session_03/Exp_data/2020_Jul_20_1121/rec_QA_run_00_block_000_trial_014.wav,,,,03,03,English,A2,True,False,True,False,False,True,True,True,True,True,True,True,No,No,No,No,No,No,2020_Jul_20_1121,nibs_stage_1,3.2.3,60.018172998358715,
0,0,0,0,0,0,0,0,15,0,15,0,,,,,,,,,,,,,,,,,,,,,,,,,Listen to the question and speak out your answer!,843.5631330013275,None,843.5296431064605,845.5632100105286,Wer soll den Geschirrspüler einräumen?,einräumen,844.9129544734955,847.1297419071198,847.5133604049682,None,860.1137544155121,None,861.5305619239807,None,./data/Subject_03/Session_03/Exp_data/2020_Jul_20_1121/rec_QA_run_00_block_000_trial_015.wav,,,,03,03,English,A2,True,False,True,False,False,True,True,True,True,True,True,True,No,No,No,No,No,No,2020_Jul_20_1121,nibs_stage_1,3.2.3,60.018172998358715,
0,0,0,0,0,0,0,0,16,0,16,0,,,,,,,,,,,,,,,,,,,,,,,,,Listen to the question and speak out your answer!,864.5980348587036,None,864.5641360759735,866.597324848175,Ich kann mich noch gut an meinen ersten Schultag erinnern.,erinnern,865.9807154178619,869.0642158985138,869.4474843978882,None,881.1817714214325,None,882.5983219146729,None,./data/Subject_03/Session_03/Exp_data/2020_Jul_20_1121/rec_QA_run_00_block_000_trial_016.wav,,,,03,03,English,A2,True,False,True,False,False,True,True,True,True,True,True,True,No,No,No,No,No,No,2020_Jul_20_1121,nibs_stage_1,3.2.3,60.018172998358715,
0,0,0,0,0,0,0,0,17,0,17,0,,,,,,,,,,,,,,,,,,,,,,,,,Listen to the question and speak out your answer!,885.6324729919434,None,885.598679113388,887.631954908371,"Ich muss einen Schirm holen, weil es regnet.",holen,887.0151435375213,None,890.0486394405365,891.0653409957886,902.2161134719848,None,903.6326620578766,None,./data/Subject_03/Session_03/Exp_data/2020_Jul_20_1121/rec_QA_run_00_block_000_trial_017.wav,,,,03,03,English,A2,True,False,True,False,False,True,True,True,True,True,True,True,No,No,No,No,No,No,2020_Jul_20_1121,nibs_stage_1,3.2.3,60.018172998358715,
0,0,0,0,0,0,0,0,18,0,18,0,,,,,,,,,,,,,,,,,,,,,,,,,Listen to the question and speak out your answer!,906.6835088729858,None,906.6494915008544,908.6829278469086,Abends essen wir meistens kalt.,essen,908.0329505443573,None,910.4331144332886,911.4497828483582,923.2337063789367,924.2503249645233,924.6504299640656,None,./data/Subject_03/Session_03/Exp_data/2020_Jul_20_1121/rec_QA_run_00_block_000_trial_018.wav,,,,03,03,English,A2,True,False,True,False,False,True,True,True,True,True,True,True,No,No,No,No,No,No,2020_Jul_20_1121,nibs_stage_1,3.2.3,60.018172998358715,
0,0,0,0,0,0,0,0,19,0,19,0,,,,,,,,,,,,,,,,,,,,,,,,,Listen to the question and speak out your answer!,927.7179639339447,None,927.6839390277862,929.7172968387604,"Wir haben die Preise gesenkt, um neue Kunden zu gewinnen.",gewinnen,929.0673445701599,None,932.9675284862518,None,944.2681163787842,None,945.6848590373993,None,./data/Subject_03/Session_03/Exp_data/2020_Jul_20_1121/rec_QA_run_00_block_000_trial_019.wav,,,,03,03,English,A2,True,False,True,False,False,True,True,True,True,True,True,True,No,No,No,No,No,No,2020_Jul_20_1121,nibs_stage_1,3.2.3,60.018172998358715,
0,0,0,0,0,0,0,0,20,0,20,0,,,,,,,,,,,,,,,,,,,,,,,,,Listen to the question and speak out your answer!,948.751955986023,None,948.7184050559997,950.7521829605103,"Ich möchte, dass Sie das Wort mit Ihren eigenen Worten erklären!",erklären,950.1353763580322,953.985563993454,954.3687495231628,None,965.319914484024,966.3360240459442,966.7360389232635,None,./data/Subject_03/Session_03/Exp_data/2020_Jul_20_1121/rec_QA_run_00_block_000_trial_020.wav,,,,03,03,English,A2,True,False,True,False,False,True,True,True,True,True,True,True,No,No,No,No,No,No,2020_Jul_20_1121,nibs_stage_1,3.2.3,60.018172998358715,
0,0,0,0,0,0,0,0,21,0,21,0,,,,,,,,,,,,,,,,,,,,,,,,,Listen to the question and speak out your answer!,969.8043639659882,None,969.7860974788665,971.8033149242401,Sie gehen diese Straße geradeaus und biegen an der ersten Kreuzung rechts ab.,biegen,971.1864513397217,975.8364279270172,976.2198804855346,977.2367658615112,986.3871163368225,987.4039318561554,987.8037378787994,None,./data/Subject_03/Session_03/Exp_data/2020_Jul_20_1121/rec_QA_run_00_block_000_trial_021.wav,,,,03,03,English,A2,True,False,True,False,False,True,True,True,True,True,True,True,No,No,No,No,No,No,2020_Jul_20_1121,nibs_stage_1,3.2.3,60.018172998358715,
0,0,0,0,0,0,0,0,22,0,22,0,,,,,,,,,,,,,,,,,,,,,,,,,Listen to the question and speak out your answer!,990.8715798854828,None,990.8539034843444,992.8706748485565,Was bedeutet Pressefreiheit für dich?,bedeutet,992.2539555072784,None,994.8874165058136,None,1007.4548374652862,None,1008.8715319633484,None,./data/Subject_03/Session_03/Exp_data/2020_Jul_20_1121/rec_QA_run_00_block_000_trial_022.wav,,,,03,03,English,A2,True,False,True,False,False,True,True,True,True,True,True,True,No,No,No,No,No,No,2020_Jul_20_1121,nibs_stage_1,3.2.3,60.018172998358715,
0,0,0,0,0,0,0,0,23,0,23,0,,,,,,,,,,,,,,,,,,,,,,,,,Listen to the question and speak out your answer!,1011.9054510593414,None,1011.8884706020355,1013.9050798416138,Die Bergsteiger sind in die Wand eingestiegen.,eingestiegen,1013.2884253501892,None,1016.2222024440765,1017.2385959625244,1028.4892045497895,None,1029.9059100151062,None,./data/Subject_03/Session_03/Exp_data/2020_Jul_20_1121/rec_QA_run_00_block_000_trial_023.wav,,,,03,03,English,A2,True,False,True,False,False,True,True,True,True,True,True,True,No,No,No,No,No,No,2020_Jul_20_1121,nibs_stage_1,3.2.3,60.018172998358715,
0,0,0,0,0,0,0,0,24,0,24,0,,,,,,,,,,,,,,,,,,,,,,,,,Listen to the question and speak out your answer!,1032.940778017044,None,1032.9227284908295,1034.9396350383759,Sarah badet lieber abends in der Wanne.,badet,1034.3228775501252,None,1037.1229895591737,None,1049.5236023902894,1050.5403339862823,1050.940644979477,None,./data/Subject_03/Session_03/Exp_data/2020_Jul_20_1121/rec_QA_run_00_block_000_trial_024.wav,,,,03,03,English,A2,True,False,True,False,False,True,True,True,True,True,True,True,No,No,No,No,No,No,2020_Jul_20_1121,nibs_stage_1,3.2.3,60.018172998358715,
0,0,0,0,0,0,0,0,,,,,,,,,,,,,,,,,,1054.9905788898468,None,,,,,,,,,,,,,,,,,,,,,,,,,,,,,03,03,English,A2,True,False,True,False,False,True,True,True,True,True,True,True,No,No,No,No,No,No,2020_Jul_20_1121,nibs_stage_1,3.2.3,60.018172998358715,
0,0,0,0,1,0,1,0,0,0,0,0,,,,,,,,,,,,,,,,,,,,,,,,,Listen to the question and speak out your answer!,1070.52574300766,None,1070.4916806697847,1072.5248398780823,"Wissen Sie, wer als erster Bergsteiger den Mount Everest bestiegen hat?",bestiegen,1071.8748015403748,1076.258582830429,1076.6416834831239,None,1087.0758394241334,None,1088.492341041565,None,./data/Subject_03/Session_03/Exp_data/2020_Jul_20_1121/rec_QA_run_00_block_001_trial_000.wav,,,,03,03,English,A2,True,False,True,False,False,True,True,True,True,True,True,True,No,No,No,No,No,No,2020_Jul_20_1121,nibs_stage_1,3.2.3,60.018172998358715,
0,0,0,0,1,0,1,0,1,0,1,0,,,,,,,,,,,,,,,,,,,,,,,,,Listen to the question and speak out your answer!,1091.5767738819122,None,1091.5426096439362,1093.5758709907532,"Ich muss meinen Nachnamen oft langsam buchstabieren, weil er zu selten ist.",buchstabieren,1092.9258605480195,None,1097.7931953907014,None,1108.1266485691071,None,1109.5436589717865,None,./data/Subject_03/Session_03/Exp_data/2020_Jul_20_1121/rec_QA_run_00_block_001_trial_001.wav,,,,03,03,English,A2,True,False,True,False,False,True,True,True,True,True,True,True,No,No,No,No,No,No,2020_Jul_20_1121,nibs_stage_1,3.2.3,60.018172998358715,
0,0,0,0,1,0,1,0,2,0,2,0,,,,,,,,,,,,,,,,,,,,,,,,,Listen to the question and speak out your answer!,1112.6111359596252,None,1112.593706560135,1114.6104068756104,Sie hat das Gemüse in Olivenöl gebraten.,gebraten,1113.9936434268952,None,1117.1606654167176,None,1129.1946724891664,None,1130.6111779212952,None,./data/Subject_03/Session_03/Exp_data/2020_Jul_20_1121/rec_QA_run_00_block_001_trial_002.wav,,,,03,03,English,A2,True,False,True,False,False,True,True,True,True,True,True,True,No,No,No,No,No,No,2020_Jul_20_1121,nibs_stage_1,3.2.3,60.018172998358715,
0,0,0,0,1,0,1,0,3,0,3,0,,,,,,,,,,,,,,,,,,,,,,,,,Listen to the question and speak out your answer!,1133.6791288852692,None,1133.6613316059113,1135.6783049106598,"Habt ihr eine Ahnung, wie der Unfall passiert ist?",passiert,1135.0616444587708,1138.1451618671417,1138.528250360489,None,1150.262319469452,None,1151.6792318820953,None,./data/Subject_03/Session_03/Exp_data/2020_Jul_20_1121/rec_QA_run_00_block_001_trial_003.wav,,,,03,03,English,A2,True,False,True,False,False,True,True,True,True,True,True,True,No,No,No,No,No,No,2020_Jul_20_1121,nibs_stage_1,3.2.3,60.018172998358715,
0,0,0,0,1,0,1,0,4,0,4,0,,,,,,,,,,,,,,,,,,,,,,,,,Listen to the question and speak out your answer!,1154.747470855713,None,1154.729480457306,1156.7461268901825,"Ja, das Wasser aus der Leitung kann man trinken.",trinken,1156.1290725708009,None,1159.4293383598329,1160.4463188648224,1171.313204431534,None,1172.7300338745117,None,./data/Subject_03/Session_03/Exp_data/2020_Jul_20_1121/rec_QA_run_00_block_001_trial_004.wav,,,,03,03,English,A2,True,False,True,False,False,True,True,True,True,True,True,True,No,No,No,No,No,No,2020_Jul_20_1121,nibs_stage_1,3.2.3,60.018172998358715,
0,0,0,0,1,0,1,0,5,0,5,0,,,,,,,,,,,,,,,,,,,,,,,,,Listen to the question and speak out your answer!,1175.7976958751678,None,1175.7802714824677,1177.7969708442688,Der Fallschirm wird im Fall geöffnet.,geöffnet,1177.1803435325623,1179.363816022873,1179.7470594882966,1180.7637779712677,1192.381075525284,None,1193.797924041748,None,./data/Subject_03/Session_03/Exp_data/2020_Jul_20_1121/rec_QA_run_00_block_001_trial_005.wav,,,,03,03,English,A2,True,False,True,False,False,True,True,True,True,True,True,True,No,No,No,No,No,No,2020_Jul_20_1121,nibs_stage_1,3.2.3,60.018172998358715,
0,0,0,0,1,0,1,0,6,0,6,0,,,,,,,,,,,,,,,,,,,,,,,,,Listen to the question and speak out your answer!,1196.881994009018,None,1196.8647471427919,1198.8814330101013,Blut fließt aus einer Wunde.,fließt,1198.2649094104768,1200.1148099899292,1200.464829349518,1201.4815440177917,1213.4654685497285,None,1214.882241010666,None,./data/Subject_03/Session_03/Exp_data/2020_Jul_20_1121/rec_QA_run_00_block_001_trial_006.wav,,,,03,03,English,A2,True,False,True,False,False,True,True,True,True,True,True,True,No,No,No,No,No,No,2020_Jul_20_1121,nibs_stage_1,3.2.3,60.018172998358715,
0,0,0,0,1,0,1,0,7,0,7,0,,,,,,,,,,,,,,,,,,,,,,,,,Listen to the question and speak out your answer!,1217.9164350032806,None,1217.899340581894,1219.9158380031586,Mir ist etwas Unangenehmes passiert.,passiert,1219.2991403579713,None,1222.065974378586,None,1234.5000545024873,None,1235.9166860580444,None,./data/Subject_03/Session_03/Exp_data/2020_Jul_20_1121/rec_QA_run_00_block_001_trial_007.wav,,,,03,03,English,A2,True,False,True,False,False,True,True,True,True,True,True,True,No,No,No,No,No,No,2020_Jul_20_1121,nibs_stage_1,3.2.3,60.018172998358715,
0,0,0,0,1,0,1,0,8,0,8,0,,,,,,,,,,,,,,,,,,,,,,,,,Listen to the question and speak out your answer!,1238.9513938426971,None,1238.916860151291,1240.9502849578857,"Wenn der Wind stark bläst, ziehen die Wolken schnell über den Himmel.",bläst,1240.3336144924165,1243.8506288528442,1244.234151506424,1245.2505848407745,1255.534397506714,None,1256.9512069225311,None,./data/Subject_03/Session_03/Exp_data/2020_Jul_20_1121/rec_QA_run_00_block_001_trial_008.wav,,,,03,03,English,A2,True,False,True,False,False,True,True,True,True,True,True,True,No,No,No,No,No,No,2020_Jul_20_1121,nibs_stage_1,3.2.3,60.018172998358715,
0,0,0,0,1,0,1,0,9,0,9,0,,,,,,,,,,,,,,,,,,,,,,,,,Listen to the question and speak out your answer!,1259.9855468273163,None,1259.951267051697,1261.984834909439,Im gleichen Jahr hat der amerikanische Bürgerkrieg begonnen.,begonnen,1261.3680373668672,None,1265.2349025249482,1266.2516179084778,1276.5520574092866,None,1277.9692659378052,None,./data/Subject_03/Session_03/Exp_data/2020_Jul_20_1121/rec_QA_run_00_block_001_trial_009.wav,,,,03,03,English,A2,True,False,True,False,False,True,True,True,True,True,True,True,No,No,No,No,No,No,2020_Jul_20_1121,nibs_stage_1,3.2.3,60.018172998358715,
0,0,0,0,1,0,1,0,10,0,10,0,,,,,,,,,,,,,,,,,,,,,,,,,Listen to the question and speak out your answer!,1281.053321838379,None,1281.0191945552826,1283.0525059700012,"Früh übt sich, wer ein Meister werden will.",werden,1282.435933494568,1285.1861629486084,1285.5693913936616,None,1297.6031724452973,None,1299.0200788974762,None,./data/Subject_03/Session_03/Exp_data/2020_Jul_20_1121/rec_QA_run_00_block_001_trial_010.wav,,,,03,03,English,A2,True,False,True,False,False,True,True,True,True,True,True,True,No,No,No,No,No,No,2020_Jul_20_1121,nibs_stage_1,3.2.3,60.018172998358715,
0,0,0,0,1,0,1,0,11,0,11,0,,,,,,,,,,,,,,,,,,,,,,,,,Listen to the question and speak out your answer!,1302.0885200500488,None,1302.0701725006104,1304.0871460437775,Das Unternehmen wird nächste Woche die Jahresprämie bezahlen.,bezahlen,1303.4702834129334,1307.1540398597717,1307.5373405456544,1308.5540628433228,1318.671330356598,None,1320.087769985199,None,./data/Subject_03/Session_03/Exp_data/2020_Jul_20_1121/rec_QA_run_00_block_001_trial_011.wav,,,,03,03,English,A2,True,False,True,False,False,True,True,True,True,True,True,True,No,No,No,No,No,No,2020_Jul_20_1121,nibs_stage_1,3.2.3,60.018172998358715,
0,0,0,0,1,0,1,0,12,0,12,0,,,,,,,,,,,,,,,,,,,,,,,,,Listen to the question and speak out your answer!,1323.1722769737244,None,1323.138096523285,1325.1713888645172,Der Bus fährt jede Stunde.,fährt,1324.521426343918,1326.4381408691406,1326.8216723442079,1327.838399887085,1339.722426557541,None,1341.138897895813,None,./data/Subject_03/Session_03/Exp_data/2020_Jul_20_1121/rec_QA_run_00_block_001_trial_012.wav,,,,03,03,English,A2,True,False,True,False,False,True,True,True,True,True,True,True,No,No,No,No,No,No,2020_Jul_20_1121,nibs_stage_1,3.2.3,60.018172998358715,
0,0,0,0,1,0,1,0,13,0,13,0,,,,,,,,,,,,,,,,,,,,,,,,,Listen to the question and speak out your answer!,1344.206128835678,None,1344.1727459907534,1346.2058198451996,"Bitte zieh deinen Mantel an, es ist kalt draußen.",zieh,1345.5892144680024,None,1349.0893084049226,None,1360.7899915218354,None,1362.2065868377686,None,./data/Subject_03/Session_03/Exp_data/2020_Jul_20_1121/rec_QA_run_00_block_001_trial_013.wav,,,,03,03,English,A2,True,False,True,False,False,True,True,True,True,True,True,True,No,No,No,No,No,No,2020_Jul_20_1121,nibs_stage_1,3.2.3,60.018172998358715,
0,0,0,0,1,0,1,0,14,0,14,0,,,,,,,,,,,,,,,,,,,,,,,,,Listen to the question and speak out your answer!,1365.2576730251312,None,1365.223863554001,1367.2569198608398,Der Präsident diskutierte das Thema auf der Pressekonferenz nicht.,diskutierte,1366.6071163654328,1370.8571169376373,1371.2404853343965,None,1381.807702445984,None,1383.2245500087738,None,./data/Subject_03/Session_03/Exp_data/2020_Jul_20_1121/rec_QA_run_00_block_001_trial_014.wav,,,,03,03,English,A2,True,False,True,False,False,True,True,True,True,True,True,True,No,No,No,No,No,No,2020_Jul_20_1121,nibs_stage_1,3.2.3,60.018172998358715,
0,0,0,0,1,0,1,0,15,0,15,0,,,,,,,,,,,,,,,,,,,,,,,,,Listen to the question and speak out your answer!,1386.2913670539856,None,1386.2579250812532,1388.2915878295898,Ich kümmere mich nicht um die Reden der Leute.,kümmere,1387.6747404575349,None,1390.5748204231263,None,1402.8421124458314,None,1404.2588539123535,None,./data/Subject_03/Session_03/Exp_data/2020_Jul_20_1121/rec_QA_run_00_block_001_trial_015.wav,,,,03,03,English,A2,True,False,True,False,False,True,True,True,True,True,True,True,No,No,No,No,No,No,2020_Jul_20_1121,nibs_stage_1,3.2.3,60.018172998358715,
0,0,0,0,1,0,1,0,16,0,16,0,,,,,,,,,,,,,,,,,,,,,,,,,Listen to the question and speak out your answer!,1407.3266220092773,None,1407.2925630092623,1409.3258039951324,Der Artikel hat uns über die Ursache des Erderwärmung informiert.,informiert,1408.7093624114991,1412.5595049858093,1412.9428433418275,1413.9594068527222,1423.8935154914857,None,1425.31010389328,None,./data/Subject_03/Session_03/Exp_data/2020_Jul_20_1121/rec_QA_run_00_block_001_trial_016.wav,,,,03,03,English,A2,True,False,True,False,False,True,True,True,True,True,True,True,No,No,No,No,No,No,2020_Jul_20_1121,nibs_stage_1,3.2.3,60.018172998358715,
0,0,0,0,1,0,1,0,17,0,17,0,,,,,,,,,,,,,,,,,,,,,,,,,Listen to the question and speak out your answer!,1428.377454996109,None,1428.3436811447145,1430.3771059513092,Linda trinkt lieber eine heiße Schokolade.,trinkt,1429.7604683876039,1432.5437848567963,1432.927046442032,None,1444.9610115528108,None,1446.3777549266815,None,./data/Subject_03/Session_03/Exp_data/2020_Jul_20_1121/rec_QA_run_00_block_001_trial_017.wav,,,,03,03,English,A2,True,False,True,False,False,True,True,True,True,True,True,True,No,No,No,No,No,No,2020_Jul_20_1121,nibs_stage_1,3.2.3,60.018172998358715,
0,0,0,0,1,0,1,0,18,0,18,0,,,,,,,,,,,,,,,,,,,,,,,,,Listen to the question and speak out your answer!,1449.4114880561829,None,1449.377891111374,1451.4115438461304,"Ich war begeistert, als ich das Spiel fast gewonnen hätte.",gewonnen,1450.761267566681,1454.3115768432617,1454.6948365211488,None,1465.9621054172517,None,1467.3788509368896,None,./data/Subject_03/Session_03/Exp_data/2020_Jul_20_1121/rec_QA_run_00_block_001_trial_018.wav,,,,03,03,English,A2,True,False,True,False,False,True,True,True,True,True,True,True,No,No,No,No,No,No,2020_Jul_20_1121,nibs_stage_1,3.2.3,60.018172998358715,
0,0,0,0,1,0,1,0,19,0,19,0,,,,,,,,,,,,,,,,,,,,,,,,,Listen to the question and speak out your answer!,1470.4470109939575,None,1470.4291746139527,1472.4458310604095,Während einer Trocken-Zeit regnet es sehr selten.,regnet,1471.8290494918824,None,1475.095912361145,None,1487.029867553711,None,1488.4466128349304,None,./data/Subject_03/Session_03/Exp_data/2020_Jul_20_1121/rec_QA_run_00_block_001_trial_019.wav,,,,03,03,English,A2,True,False,True,False,False,True,True,True,True,True,True,True,No,No,No,No,No,No,2020_Jul_20_1121,nibs_stage_1,3.2.3,60.018172998358715,
0,0,0,0,1,0,1,0,20,0,20,0,,,,,,,,,,,,,,,,,,,,,,,,,Listen to the question and speak out your answer!,1491.5140268802643,None,1491.4801609992983,1493.5137360095978,"Sein Kommentar ist immer so vage, dass niemand weiß, was er meint.",meint,1492.896955394745,1497.113893032074,1497.4970764160157,1498.5137898921967,1508.0976563930512,1509.1142790317535,1509.514389038086,None,./data/Subject_03/Session_03/Exp_data/2020_Jul_20_1121/rec_QA_run_00_block_001_trial_020.wav,,,,03,03,English,A2,True,False,True,False,False,True,True,True,True,True,True,True,No,No,No,No,No,No,2020_Jul_20_1121,nibs_stage_1,3.2.3,60.018172998358715,
0,0,0,0,1,0,1,0,21,0,21,0,,,,,,,,,,,,,,,,,,,,,,,,,Listen to the question and speak out your answer!,1512.5484728813171,None,1512.5144470214846,1514.5479910373688,"Um den Bus noch zu erwischen, musste ich heute Morgen sehr schnell laufen.",laufen,1513.9315504074098,None,1518.3648504257203,None,1529.1154874801637,None,1530.5322918891907,None,./data/Subject_03/Session_03/Exp_data/2020_Jul_20_1121/rec_QA_run_00_block_001_trial_021.wav,,,,03,03,English,A2,True,False,True,False,False,True,True,True,True,True,True,True,No,No,No,No,No,No,2020_Jul_20_1121,nibs_stage_1,3.2.3,60.018172998358715,
0,0,0,0,1,0,1,0,22,0,22,0,,,,,,,,,,,,,,,,,,,,,,,,,Listen to the question and speak out your answer!,1533.6002049446106,None,1533.5656340599062,1535.599061012268,"Ich komme, soweit es meine Zeit erlaubt.",erlaubt,1534.9823934078217,1537.5658509731293,1537.9492925643922,None,1550.183183336258,None,1551.5998170375824,None,./data/Subject_03/Session_03/Exp_data/2020_Jul_20_1121/rec_QA_run_00_block_001_trial_022.wav,,,,03,03,English,A2,True,False,True,False,False,True,True,True,True,True,True,True,No,No,No,No,No,No,2020_Jul_20_1121,nibs_stage_1,3.2.3,60.018172998358715,
0,0,0,0,1,0,1,0,23,0,23,0,,,,,,,,,,,,,,,,,,,,,,,,,Listen to the question and speak out your answer!,1554.634386062622,None,1554.6169735908509,1556.6335349082947,Im Herbst werden die Blätter von den Bäumen fallen.,fallen,1556.0168203353883,None,1559.1836375236512,1560.2003688812256,1571.2177764415742,None,1572.6344079971313,None,./data/Subject_03/Session_03/Exp_data/2020_Jul_20_1121/rec_QA_run_00_block_001_trial_023.wav,,,,03,03,English,A2,True,False,True,False,False,True,True,True,True,True,True,True,No,No,No,No,No,No,2020_Jul_20_1121,nibs_stage_1,3.2.3,60.018172998358715,
0,0,0,0,1,0,1,0,24,0,24,0,,,,,,,,,,,,,,,,,,,,,,,,,Listen to the question and speak out your answer!,1575.7521109580994,None,1575.7179136276245,1577.7515139579773,An seinem Mantel fehlt ein Knopf.,fehlt,1577.1012224197389,None,1579.6346465587617,None,1592.302141571045,1593.3187639713287,1593.7188148498535,None,./data/Subject_03/Session_03/Exp_data/2020_Jul_20_1121/rec_QA_run_00_block_001_trial_024.wav,,,,03,03,English,A2,True,False,True,False,False,True,True,True,True,True,True,True,No,No,No,No,No,No,2020_Jul_20_1121,nibs_stage_1,3.2.3,60.018172998358715,
0,0,0,0,1,0,1,0,,,,,,,,,,,,,,,,,,1597.76997590065,None,,,,,,,,,,,,,,,,,,,,,,,,,,,,,03,03,English,A2,True,False,True,False,False,True,True,True,True,True,True,True,No,No,No,No,No,No,2020_Jul_20_1121,nibs_stage_1,3.2.3,60.018172998358715,
0,0,0,0,,,,,,,,,,,,,,,,,,,,,,,,,,,,,,,,,,,,,,,,,,,,,,,,,Please remain seated until further instruction via the earphone.,53.38851499557495,None,03,03,English,A2,True,False,True,False,False,True,True,True,True,True,True,True,No,No,No,No,No,No,2020_Jul_20_1121,nibs_stage_1,3.2.3,60.018172998358715,
