run.thisRepN,run.thisTrialN,run.thisN,run.thisIndex,artifact_trial.thisRepN,artifact_trial.thisTrialN,artifact_trial.thisN,artifact_trial.thisIndex,QA_block.thisRepN,QA_block.thisTrialN,QA_block.thisN,QA_block.thisIndex,QA_trial.thisRepN,QA_trial.thisTrialN,QA_trial.thisN,QA_trial.thisIndex,fade_in_text.text,fade_in_text.started,fade_in_text.stopped,Artifact_intro_title.started,Artifact_intro_title.stopped,Artifact_intro_text.text,Artifact_intro_text.started,Artifact_intro_text.stopped,Artifact_intro_audio.started,Artifact_intro_audio.stopped,Artifact_intro_cont.started,Artifact_intro_cont.stopped,Artifact_rec_text.text,Artifact_rec_text.started,Artifact_rec_text.stopped,Artifact_rec_beep_hint.started,Artifact_rec_beep_hint.stopped,Artifact_rec_action.started,Artifact_rec_action.stopped,Artifact_rec_beep_start.started,Artifact_rec_beep_start.stopped,Artifact_rec_recording.started,Artifact_rec_recording.stopped,Artifact_rec_beep_end.started,Artifact_rec_beep_end.stopped,Artifact_rec_break.started,Artifact_rec_break.stopped,RS_intro_title.started,RS_intro_title.stopped,RS_intro_text.text,RS_intro_text.started,RS_intro_text.stopped,RS_intro_audio.started,RS_intro_audio.stopped,RS_rec_text.text,RS_rec_text.started,RS_rec_text.stopped,Pause_cont.started,Pause_cont.stopped,QA_intro_title.started,QA_intro_title.stopped,QA_intro_text.text,QA_intro_text.started,QA_intro_text.stopped,QA_intro_audio.started,QA_intro_audio.stopped,QA_intro_cont.started,QA_intro_cont.stopped,QA_rec_text.text,QA_rec_text.started,QA_rec_text.stopped,QA_rec_beep_hint.started,QA_rec_beep_hint.stopped,QA_rec_question.sen_text,QA_rec_question.cen_text,QA_rec_question.started,QA_rec_question.stopped,QA_rec_beep_start.started,QA_rec_beep_start.stopped,QA_rec_beep_end.started,QA_rec_beep_end.stopped,QA_rec_break.started,QA_rec_break.stopped,filename,fade_out_text.text,fade_out_text.started,fade_out_text.stopped,participant,session,First language,German level,Full_screen,Instruction,Intro,Artifact,Cali_pre,Fade_in_out,Artifact_within,Resting_State,QA,Pause,Cali_post,End,Breakpoint_Cali_pre_trial,Breakpoint_Run,Breakpoint_RS_block,Breakpoint_QA_block,Breakpoint_QA_trial,Breakpoint_Cali_post_trial,date,expName,psychopyVersion,frameRate,
2,0,2,0,0,0,0,0,,,,,,,,,Please remain seated until further instruction via the earphone.,60.6374671459198,None,62.67112112045288,89.6725001335144,"  - Task: Artifacts collection   
  - Please follow audio instruction              
",62.67112112045288,89.6725001335144,62.655421423912045,None,89.03897309303284,None,,92.00575304031372,None,91.99002830982208,93.98937916755676,93.37252132892608,None,96.77266733646393,None,98.17290132045746,108.17318415641785,108.57333843708038,109.57338905334473,109.97336006164551,110.97341108322144,,,,,,,,,,,,,,,,,,,,,,,,,,,,,,,,,,,,,,,,,03,03,English,A2,True,False,True,False,False,True,True,True,True,True,True,True,No,2,No,No,No,No,2020_Jul_20_1223,nibs_stage_1,3.2.3,59.97826410259344,
2,0,2,0,1,0,1,0,,,,,,,,,,,,,,,,,,,,,,114.00728917121887,None,114.0080203294754,116.02336812019348,115.39009850025177,None,118.79026143550873,None,120.19034640789032,130.19084310531616,130.5908834218979,131.59095001220703,131.9909632205963,132.99115014076233,,,,,,,,,,,,,,,,,,,,,,,,,,,,,,,,,,,,,,,,,03,03,English,A2,True,False,True,False,False,True,True,True,True,True,True,True,No,2,No,No,No,No,2020_Jul_20_1223,nibs_stage_1,3.2.3,59.97826410259344,
2,0,2,0,2,0,2,0,,,,,,,,,,,,,,,,,,,,,,136.02458310127258,136.02458310127258,136.00892536640168,138.00792717933655,137.40802948474885,None,140.80800931453706,None,142.20817439556123,152.20868301391602,152.60872547626496,153.60868120193481,154.00869417190552,155.00883221626282,,,,,,,,,,,,,,,,,,,,,,,,,,,,,,,,,,,,,,,,,03,03,English,A2,True,False,True,False,False,True,True,True,True,True,True,True,No,2,No,No,No,No,2020_Jul_20_1223,nibs_stage_1,3.2.3,59.97826410259344,
2,0,2,0,3,0,3,0,,,,,,,,,,,,,,,,,,,,,,158.0262851715088,None,158.0268444299698,160.04243421554565,159.4090613603592,None,162.80926244258882,None,164.2093223810196,174.20985102653503,174.6098603487015,None,176.00990509986877,177.0099561214447,,,,,,,,,,,,,,,,,,,,,,,,,,,,,,,,,,,,,,,,,03,03,English,A2,True,False,True,False,False,True,True,True,True,True,True,True,No,2,No,No,No,No,2020_Jul_20_1223,nibs_stage_1,3.2.3,59.97826410259344,
2,0,2,0,4,0,4,0,,,,,,,,,,,,,,,,,,,,,,180.04346108436584,180.04346108436584,180.02798144817353,182.04359221458435,181.4268893480301,None,184.8269855260849,None,186.22714035511018,196.22775411605835,196.62770049571992,197.62772822380066,198.02775502204895,199.0278091430664,,,,,,,,,,,,,,,,,,,,,,,,,,,,,,,,,,,,,,,,,03,03,English,A2,True,False,True,False,False,True,True,True,True,True,True,True,No,2,No,No,No,No,2020_Jul_20_1223,nibs_stage_1,3.2.3,59.97826410259344,
2,0,2,0,5,0,5,0,,,,,,,,,,,,,,,,,,,,,,202.0452070236206,None,202.04580848217012,204.04504299163818,203.4280394792557,None,206.82846443653108,None,208.22854535579683,218.2290370464325,218.62904446125032,None,220.02911400794983,221.0293471813202,,,,,,,,,,,,,,,,,,,,,,,,,,,,,,,,,,,,,,,,,03,03,English,A2,True,False,True,False,False,True,True,True,True,True,True,True,No,2,No,No,No,No,2020_Jul_20_1223,nibs_stage_1,3.2.3,59.97826410259344,
2,0,2,0,6,0,6,0,,,,,,,,,,,,,,,,,,,,,,224.06266403198242,224.06266403198242,224.0473214864731,226.06288504600525,225.44610540866853,None,228.8462454557419,None,230.246404337883,240.2468490600586,240.64690630435945,None,242.04695010185242,243.04700112342834,,,,,,,,,,,,,,,,,,,,,,,,,,,,,,,,,,,,,,,,,03,03,English,A2,True,False,True,False,False,True,True,True,True,True,True,True,No,2,No,No,No,No,2020_Jul_20_1223,nibs_stage_1,3.2.3,59.97826410259344,
2,0,2,0,7,0,7,0,,,,,,,,,,,,,,,,,,,,,,246.0641372203827,None,246.06500833034517,248.08058500289917,247.44722239971162,250.44737720489502,250.84740035533906,None,252.2474803209305,262.24799704551697,262.64802544116975,None,264.0481581687927,265.04812502861023,,,,,,,,,,,,,,,,,,,,,,,,,,,,,,,,,,,,,,,,,03,03,English,A2,True,False,True,False,False,True,True,True,True,True,True,True,No,2,No,No,No,No,2020_Jul_20_1223,nibs_stage_1,3.2.3,59.97826410259344,
2,0,2,0,8,0,8,0,,,,,,,,,,,,,,,,,,,,,,268.0818362236023,268.0818362236023,268.06614129543306,270.08172702789307,269.46495740413667,272.4651131629944,272.86523430347444,None,274.26531450748445,284.2657661437988,284.66612737178804,None,286.06593012809753,287.0659601688385,,,,,,,,,,,,,,,,,,,,,,,,,,,,,,,,,,,,,,,,,03,03,English,A2,True,False,True,False,False,True,True,True,True,True,True,True,No,2,No,No,No,No,2020_Jul_20_1223,nibs_stage_1,3.2.3,59.97826410259344,
2,0,2,0,9,0,9,0,,,,,,,,,,,,,,,,,,,,,,290.08317017555237,None,290.08411328792573,292.0994710922241,291.46619551181794,294.4663381576538,294.86628739833833,None,296.2664624929428,306.2668790817261,306.66698639392854,None,308.06707406044006,309.0671110153198,,,,,,,,,,,,,,,,,,,,,,,,,,,,,,,,,,,,,,,,,03,03,English,A2,True,False,True,False,False,True,True,True,True,True,True,True,No,2,No,No,No,No,2020_Jul_20_1223,nibs_stage_1,3.2.3,59.97826410259344,
2,0,2,0,10,0,10,0,,,,,,,,,,,,,,,,,,,,,,312.1005470752716,312.1005470752716,312.0850583791733,314.10066318511963,313.4839934587479,None,316.8842365026474,None,318.2842714071274,328.2848150730133,328.68484847545625,None,330.0848431587219,331.0850841999054,,,,,,,,,,,,,,,,,,,,,,,,,,,,,,,,,,,,,,,,,03,03,English,A2,True,False,True,False,False,True,True,True,True,True,True,True,No,2,No,No,No,No,2020_Jul_20_1223,nibs_stage_1,3.2.3,59.97826410259344,
2,0,2,0,11,0,11,0,,,,,,,,,,,,,,,,,,,,,,334.1191740036011,None,334.10292236804963,336.1018362045288,335.4851543188095,None,338.88534252643586,None,340.28532950878144,350.2859501838684,350.6859394788742,None,352.0859441757202,353.08605313301086,,,,,,,,,,,,,,,,,,,,,,,,,,,,,,,,,,,,,,,,,03,03,English,A2,True,False,True,False,False,True,True,True,True,True,True,True,No,2,No,No,No,No,2020_Jul_20_1223,nibs_stage_1,3.2.3,59.97826410259344,
2,0,2,0,12,0,12,0,,,,,,,,,,,,,,,,,,,,,,356.1367871761322,None,356.1207393884659,358.1365351676941,357.5029563188553,360.50312900543213,360.9030653715134,361.90317821502686,362.30323951244355,372.30391907691956,372.70387451648713,None,374.1038291454315,375.1040470600128,,,,,,,,,,,,,,,,,,,,,,,,,,,,,,,,,,,,,,,,,03,03,English,A2,True,False,True,False,False,True,True,True,True,True,True,True,No,2,No,No,No,No,2020_Jul_20_1223,nibs_stage_1,3.2.3,59.97826410259344,
2,0,2,0,13,0,13,0,,,,,,,,,,,,,,,,,,,,,,378.15467405319214,None,378.1384543657303,380.137677192688,379.5215064764023,None,382.9210035085678,383.9207851886749,384.3208364725113,394.32123613357544,394.721280503273,None,396.1214621067047,397.1215560436249,,,,,,,,,,,,,,,,,,,,,,,,,,,,,,,,,,,,,,,,,03,03,English,A2,True,False,True,False,False,True,True,True,True,True,True,True,No,2,No,No,No,No,2020_Jul_20_1223,nibs_stage_1,3.2.3,59.97826410259344,
2,0,2,0,14,0,14,0,,,,,,,,,,,,,,,,,,,,,,400.1722421646118,None,400.1560622930527,402.17179012298584,401.53839843273164,None,404.9385463476181,405.9385380744934,406.33856241703035,416.33926916122437,416.7391783475876,None,418.13923811912537,419.13928604125977,,,,,,,,,,,,,,,,,,,,,,,,,,,,,,,,,,,,,,,,,03,03,English,A2,True,False,True,False,False,True,True,True,True,True,True,True,No,2,No,No,No,No,2020_Jul_20_1223,nibs_stage_1,3.2.3,59.97826410259344,
2,0,2,0,,,,,0,0,0,0,0,0,0,0,,,,,,,,,,,,,,,,,,,,,,,,,,,,629.5672271251678,None," - Task: Keep seated and relaxed with either      
             opening or closing eyes                  
 - Beep sound with decreasing pitch: Block finish 
",629.5672271251678,None,629.5518697261809,None,"Please keep relaxed and open your eyes.
Note: Blinking is allowed.",652.6015510559082,832.6110010147095,835.9779810905457,None,850.1287951469421,890.1638221740723," - Task: Listen to the question& Speak out answer 
 - Melodious beep sound: Trial start              
 - Silent sound (blank): censored word            
 - Beep sound with increasing pitch: Rec. start   
 - Beep sound with decreasing pitch: Rec. finish  
",850.1287951469421,890.1638221740723,850.1135927915573,None,889.5138602256775,None,Listen to the question and speak out your answer!,894.0810370445251,None,894.0659841060638,896.0810780525208,"Im Unterricht habe ich das Wichtige notiert, was der Lehrer gesagt.",notiert,895.4477364301681,None,899.9146303415298,None,910.6485094308853,None,912.0485889911652,913.065101146698,./data/Subject_03/Session_03/Exp_data/2020_Jul_20_1223/rec_QA_run_02_block_000_trial_000.wav,,,,03,03,English,A2,True,False,True,False,False,True,True,True,True,True,True,True,No,2,No,No,No,No,2020_Jul_20_1223,nibs_stage_1,3.2.3,59.97826410259344,
2,0,2,0,,,,,0,0,0,0,1,0,1,0,,,,,,,,,,,,,,,,,,,,,,,,,,,,,,,,,,,,,,,,,,,,,,,,,Listen to the question and speak out your answer!,915.2321221828461,None,915.2164738893508,917.2321870326996,Er ist ein Experte für Computer und kennt alle technischen Details.,kennt,916.5988234758377,920.6992080211639,921.0991443872451,922.0991442203522,931.7996763467788,None,933.1998581886292,934.1997721195221,./data/Subject_03/Session_03/Exp_data/2020_Jul_20_1223/rec_QA_run_02_block_000_trial_001.wav,,,,03,03,English,A2,True,False,True,False,False,True,True,True,True,True,True,True,No,2,No,No,No,No,2020_Jul_20_1223,nibs_stage_1,3.2.3,59.97826410259344,
2,0,2,0,,,,,0,0,0,0,2,0,2,0,,,,,,,,,,,,,,,,,,,,,,,,,,,,,,,,,,,,,,,,,,,,,,,,,Listen to the question and speak out your answer!,936.2668600082397,None,936.251085615158,938.2666001319885,"Ich nehme lieber den Bus, da gibt es nicht so viele Haltestellen.",gibt,937.6498343229293,941.6167891025543,942.016770529747,None,952.8505374670028,None,954.2508311271667,955.2510092258453,./data/Subject_03/Session_03/Exp_data/2020_Jul_20_1223/rec_QA_run_02_block_000_trial_002.wav,,,,03,03,English,A2,True,False,True,False,False,True,True,True,True,True,True,True,No,2,No,No,No,No,2020_Jul_20_1223,nibs_stage_1,3.2.3,59.97826410259344,
2,0,2,0,,,,,0,0,0,0,3,0,3,0,,,,,,,,,,,,,,,,,,,,,,,,,,,,,,,,,,,,,,,,,,,,,,,,,Listen to the question and speak out your answer!,957.3010451793671,None,957.2856408119201,959.3342831134796,Vater trinkt morgens eine Tasse Kaffee.,trinkt,958.6677023649215,None,961.6677753210067,None,973.8686663389205,None,975.2685630321503,976.2685840129852,./data/Subject_03/Session_03/Exp_data/2020_Jul_20_1223/rec_QA_run_02_block_000_trial_003.wav,,,,03,03,English,A2,True,False,True,False,False,True,True,True,True,True,True,True,No,2,No,No,No,No,2020_Jul_20_1223,nibs_stage_1,3.2.3,59.97826410259344,
2,0,2,0,,,,,0,0,0,0,4,0,4,0,,,,,,,,,,,,,,,,,,,,,,,,,,,,,,,,,,,,,,,,,,,,,,,,,Listen to the question and speak out your answer!,978.3353090286255,None,978.3199087142943,980.3354060649872,Mein Freund führt ein erfolgreiches Geschäft.,führt,979.7188293218612,None,982.8189663171768,None,994.9195803880691,None,996.3197400569916,997.319815158844,./data/Subject_03/Session_03/Exp_data/2020_Jul_20_1223/rec_QA_run_02_block_000_trial_004.wav,,,,03,03,English,A2,True,False,True,False,False,True,True,True,True,True,True,True,No,2,No,No,No,No,2020_Jul_20_1223,nibs_stage_1,3.2.3,59.97826410259344,
2,0,2,0,,,,,0,0,0,0,5,0,5,0,,,,,,,,,,,,,,,,,,,,,,,,,,,,,,,,,,,,,,,,,,,,,,,,,Listen to the question and speak out your answer!,999.386773109436,None,999.3544467449187,1001.3698642253876,Die Blumen in meinem Garten riechen gut.,riechen,1000.7532133340835,1003.2366840839386,1003.63671438694,None,1015.9538144350051,None,1017.3538510799408,1018.353921175003,./data/Subject_03/Session_03/Exp_data/2020_Jul_20_1223/rec_QA_run_02_block_000_trial_005.wav,,,,03,03,English,A2,True,False,True,False,False,True,True,True,True,True,True,True,No,2,No,No,No,No,2020_Jul_20_1223,nibs_stage_1,3.2.3,59.97826410259344,
2,0,2,0,,,,,0,0,0,0,6,0,6,0,,,,,,,,,,,,,,,,,,,,,,,,,,,,,,,,,,,,,,,,,,,,,,,,,Listen to the question and speak out your answer!,1020.4042861461639,None,1020.3885527610778,1022.404125213623,"Die U-Bahn ist gerade kaputt, also muss ich aussteigen. ",aussteigen,1021.7707204103469,1025.137659072876,1025.5376743555069,1026.537729024887,1036.9715635061264,1037.9884071350098,1038.3883101940155,None,./data/Subject_03/Session_03/Exp_data/2020_Jul_20_1223/rec_QA_run_02_block_000_trial_006.wav,,,,03,03,English,A2,True,False,True,False,False,True,True,True,True,True,True,True,No,2,No,No,No,No,2020_Jul_20_1223,nibs_stage_1,3.2.3,59.97826410259344,
2,0,2,0,,,,,0,0,0,0,7,0,7,0,,,,,,,,,,,,,,,,,,,,,,,,,,,,,,,,,,,,,,,,,,,,,,,,,Listen to the question and speak out your answer!,1041.4392771720886,None,1041.4229916095733,1043.4718720912933,Jeder Topf kommt mit seinen Deckel beim Einkaufen.,kommt,1042.8219484567642,1045.7386422157288,1046.12202231884,None,1058.0225614786148,1059.0394802093506,1059.4393692016602,None,./data/Subject_03/Session_03/Exp_data/2020_Jul_20_1223/rec_QA_run_02_block_000_trial_007.wav,,,,03,03,English,A2,True,False,True,False,False,True,True,True,True,True,True,True,No,2,No,No,No,No,2020_Jul_20_1223,nibs_stage_1,3.2.3,59.97826410259344,
2,0,2,0,,,,,0,0,0,0,8,0,8,0,,,,,,,,,,,,,,,,,,,,,,,,,,,,,,,,,,,,,,,,,,,,,,,,,Listen to the question and speak out your answer!,1062.4900751113892,None,1062.4742268085479,1064.5230150222778,"Im Kaffeehaus sitzen und Zeitung lesen, das gefällt den Österreichern.",gefällt,1063.8729593038559,1068.2897880077362,1068.6398743867874,1069.6564991474152,1079.0737523317337,None,1080.490510225296,None,./data/Subject_03/Session_03/Exp_data/2020_Jul_20_1223/rec_QA_run_02_block_000_trial_008.wav,,,,03,03,English,A2,True,False,True,False,False,True,True,True,True,True,True,True,No,2,No,No,No,No,2020_Jul_20_1223,nibs_stage_1,3.2.3,59.97826410259344,
2,0,2,0,,,,,0,0,0,0,9,0,9,0,,,,,,,,,,,,,,,,,,,,,,,,,,,,,,,,,,,,,,,,,,,,,,,,,Listen to the question and speak out your answer!,1083.557650089264,None,1083.5251716136931,1085.5574100017548,"Mein Opa war beim Ohren-Arzt, weil er so schlecht hört.",hört,1084.9407305002212,None,1088.7409273862838,None,1100.1415035009384,None,1101.5582129955292,None,./data/Subject_03/Session_03/Exp_data/2020_Jul_20_1223/rec_QA_run_02_block_000_trial_009.wav,,,,03,03,English,A2,True,False,True,False,False,True,True,True,True,True,True,True,No,2,No,No,No,No,2020_Jul_20_1223,nibs_stage_1,3.2.3,59.97826410259344,
2,0,2,0,,,,,0,0,0,0,10,0,10,0,,,,,,,,,,,,,,,,,,,,,,,,,,,,,,,,,,,,,,,,,,,,,,,,,Listen to the question and speak out your answer!,1104.5933861732483,None,1104.5599356651305,1106.5918760299683,Einige Eltern haben ihren Töchtern rosa Kleider gekauft.,gekauft,1105.9418124437332,None,1109.875372338295,None,1121.1427013158798,None,1122.559355020523,None,./data/Subject_03/Session_03/Exp_data/2020_Jul_20_1223/rec_QA_run_02_block_000_trial_010.wav,,,,03,03,English,A2,True,False,True,False,False,True,True,True,True,True,True,True,No,2,No,No,No,No,2020_Jul_20_1223,nibs_stage_1,3.2.3,59.97826410259344,
2,0,2,0,,,,,0,0,0,0,11,0,11,0,,,,,,,,,,,,,,,,,,,,,,,,,,,,,,,,,,,,,,,,,,,,,,,,,Listen to the question and speak out your answer!,1125.6113910675049,None,1125.594018793106,1127.6429331302643,Das Staatstheater ist s ist zu alt und wird dieses Jahr renoviert.,renoviert,1126.9929243803024,1131.0433480739594,1131.3931445360183,None,1142.1937474489212,1143.2104291915894,1143.6104500293732,None,./data/Subject_03/Session_03/Exp_data/2020_Jul_20_1223/rec_QA_run_02_block_000_trial_011.wav,,,,03,03,English,A2,True,False,True,False,False,True,True,True,True,True,True,True,No,2,No,No,No,No,2020_Jul_20_1223,nibs_stage_1,3.2.3,59.97826410259344,
2,0,2,0,,,,,0,0,0,0,12,0,12,0,,,,,,,,,,,,,,,,,,,,,,,,,,,,,,,,,,,,,,,,,,,,,,,,,Listen to the question and speak out your answer!,1146.6782021522522,None,1146.6451297760009,1148.6773700714111,"Keine Sorge, du wirst für diesen Fehler nicht die Schuld tragen.",tragen,1148.0606843709945,1151.7111630439758,1152.094229388237,None,1163.2614924192428,1164.2782051563263,1164.6782441139221,None,./data/Subject_03/Session_03/Exp_data/2020_Jul_20_1223/rec_QA_run_02_block_000_trial_012.wav,,,,03,03,English,A2,True,False,True,False,False,True,True,True,True,True,True,True,No,2,No,No,No,No,2020_Jul_20_1223,nibs_stage_1,3.2.3,59.97826410259344,
2,0,2,0,,,,,0,0,0,0,13,0,13,0,,,,,,,,,,,,,,,,,,,,,,,,,,,,,,,,,,,,,,,,,,,,,,,,,Listen to the question and speak out your answer!,1167.7123410701752,None,1167.6796627998351,1169.7118182182312,Der Artikel hat bereits genügend nützliche Hintergrundinformationen geliefert.,geliefert,1169.0951234579086,None,1174.195297408104,None,1184.295957493782,None,1185.7126350402832,None,./data/Subject_03/Session_03/Exp_data/2020_Jul_20_1223/rec_QA_run_02_block_000_trial_013.wav,,,,03,03,English,A2,True,False,True,False,False,True,True,True,True,True,True,True,No,2,No,No,No,No,2020_Jul_20_1223,nibs_stage_1,3.2.3,59.97826410259344,
2,0,2,0,,,,,0,0,0,0,14,0,14,0,,,,,,,,,,,,,,,,,,,,,,,,,,,,,,,,,,,,,,,,,,,,,,,,,Listen to the question and speak out your answer!,1188.7468101978302,None,1188.714013671875,1190.746234178543,Das Brot schmeckt lecker. ,schmeckt,1190.09623234272,None,1192.1296355009079,None,1205.2972883462905,None,1206.7137281894684,None,./data/Subject_03/Session_03/Exp_data/2020_Jul_20_1223/rec_QA_run_02_block_000_trial_014.wav,,,,03,03,English,A2,True,False,True,False,False,True,True,True,True,True,True,True,No,2,No,No,No,No,2020_Jul_20_1223,nibs_stage_1,3.2.3,59.97826410259344,
2,0,2,0,,,,,0,0,0,0,15,0,15,0,,,,,,,,,,,,,,,,,,,,,,,,,,,,,,,,,,,,,,,,,,,,,,,,,Listen to the question and speak out your answer!,1209.7812070846558,None,1209.7484236717223,1211.7806551456451,An der Kasse bezahlen wir mit Bankomatkarte.,bezahlen,1211.1641494512558,None,1214.5975174188613,None,1226.3647724866867,None,1227.7814991474152,None,./data/Subject_03/Session_03/Exp_data/2020_Jul_20_1223/rec_QA_run_02_block_000_trial_015.wav,,,,03,03,English,A2,True,False,True,False,False,True,True,True,True,True,True,True,No,2,No,No,No,No,2020_Jul_20_1223,nibs_stage_1,3.2.3,59.97826410259344,
2,0,2,0,,,,,0,0,0,0,16,0,16,0,,,,,,,,,,,,,,,,,,,,,,,,,,,,,,,,,,,,,,,,,,,,,,,,,Listen to the question and speak out your answer!,1230.8166840076447,None,1230.799521946907,1232.8484392166138,"Die Tür bewegt sich nur, wenn man mit viel Kraft dagegen drückt.",drückt,1232.1984023332595,1235.8487482070923,1236.232071328163,None,1247.3991975069046,None,1248.8159441947937,None,./data/Subject_03/Session_03/Exp_data/2020_Jul_20_1223/rec_QA_run_02_block_000_trial_016.wav,,,,03,03,English,A2,True,False,True,False,False,True,True,True,True,True,True,True,No,2,No,No,No,No,2020_Jul_20_1223,nibs_stage_1,3.2.3,59.97826410259344,
2,0,2,0,,,,,0,0,0,0,17,0,17,0,,,,,,,,,,,,,,,,,,,,,,,,,,,,,,,,,,,,,,,,,,,,,,,,,Listen to the question and speak out your answer!,1251.849974155426,None,1251.8339579343794,1253.8828880786896,Trotz meines Verbots hat er sein Auto vor meinem Haus geparkt.,geparkt,1253.2328483343124,1256.949708223343,1257.3330654382705,None,1268.4336354017257,None,1269.8503530025482,None,./data/Subject_03/Session_03/Exp_data/2020_Jul_20_1223/rec_QA_run_02_block_000_trial_017.wav,,,,03,03,English,A2,True,False,True,False,False,True,True,True,True,True,True,True,No,2,No,No,No,No,2020_Jul_20_1223,nibs_stage_1,3.2.3,59.97826410259344,
2,0,2,0,,,,,0,0,0,0,18,0,18,0,,,,,,,,,,,,,,,,,,,,,,,,,,,,,,,,,,,,,,,,,,,,,,,,,Listen to the question and speak out your answer!,1272.9172821044922,None,1272.8850666046142,1274.9173231124878,Die USA haben viele Satelliten in den Weltraum geschickt.,geschickt,1274.3006073713302,None,1278.2674693346023,1279.284110069275,1289.5013944387435,None,1290.9181411266327,None,./data/Subject_03/Session_03/Exp_data/2020_Jul_20_1223/rec_QA_run_02_block_000_trial_018.wav,,,,03,03,English,A2,True,False,True,False,False,True,True,True,True,True,True,True,No,2,No,No,No,No,2020_Jul_20_1223,nibs_stage_1,3.2.3,59.97826410259344,
2,0,2,0,,,,,0,0,0,0,19,0,19,0,,,,,,,,,,,,,,,,,,,,,,,,,,,,,,,,,,,,,,,,,,,,,,,,,Listen to the question and speak out your answer!,1293.9523210525513,None,1293.9194715976714,1295.951716184616,Das Eingreifen des Lehrers beendete den Kampf  der Schüler.,beendete,1295.3016964673996,1298.918547153473,1299.3019084215164,None,1310.502491402626,None,1311.919263124466,None,./data/Subject_03/Session_03/Exp_data/2020_Jul_20_1223/rec_QA_run_02_block_000_trial_019.wav,,,,03,03,English,A2,True,False,True,False,False,True,True,True,True,True,True,True,No,2,No,No,No,No,2020_Jul_20_1223,nibs_stage_1,3.2.3,59.97826410259344,
2,0,2,0,,,,,0,0,0,0,20,0,20,0,,,,,,,,,,,,,,,,,,,,,,,,,,,,,,,,,,,,,,,,,,,,,,,,,Listen to the question and speak out your answer!,1314.9867131710052,None,1314.953946685791,1316.9861750602722,Ich habe einen Platz für die Oper reserviert.,reserviert,1316.369466471672,None,1319.5035514116287,None,1331.5702533006668,None,1332.9870011806488,None,./data/Subject_03/Session_03/Exp_data/2020_Jul_20_1223/rec_QA_run_02_block_000_trial_020.wav,,,,03,03,English,A2,True,False,True,False,False,True,True,True,True,True,True,True,No,2,No,No,No,No,2020_Jul_20_1223,nibs_stage_1,3.2.3,59.97826410259344,
2,0,2,0,,,,,0,0,0,0,21,0,21,0,,,,,,,,,,,,,,,,,,,,,,,,,,,,,,,,,,,,,,,,,,,,,,,,,Listen to the question and speak out your answer!,1336.021162033081,None,1335.9884816169738,1338.0206530094147,"Seine Freunde können seinen Worten nicht trauen, weil er immer lügt.",lügt,1337.4038855314254,1341.2875502109528,1341.6707064390182,1342.6875030994415,1352.6046895265579,1353.6214032173157,1354.0215661525726,None,./data/Subject_03/Session_03/Exp_data/2020_Jul_20_1223/rec_QA_run_02_block_000_trial_021.wav,,,,03,03,English,A2,True,False,True,False,False,True,True,True,True,True,True,True,No,2,No,No,No,No,2020_Jul_20_1223,nibs_stage_1,3.2.3,59.97826410259344,
2,0,2,0,,,,,0,0,0,0,22,0,22,0,,,,,,,,,,,,,,,,,,,,,,,,,,,,,,,,,,,,,,,,,,,,,,,,,Listen to the question and speak out your answer!,1357.055596113205,None,1357.0228086471557,1359.0550169944763,Am Anfang sind die Brüder Wright mit Gleitflugzeugen geflogen.,geflogen,1358.438368487358,1362.0552701950073,1362.4385375261306,None,1373.6391355276107,None,1375.05597615242,None,./data/Subject_03/Session_03/Exp_data/2020_Jul_20_1223/rec_QA_run_02_block_000_trial_022.wav,,,,03,03,English,A2,True,False,True,False,False,True,True,True,True,True,True,True,No,2,No,No,No,No,2020_Jul_20_1223,nibs_stage_1,3.2.3,59.97826410259344,
2,0,2,0,,,,,0,0,0,0,23,0,23,0,,,,,,,,,,,,,,,,,,,,,,,,,,,,,,,,,,,,,,,,,,,,,,,,,Listen to the question and speak out your answer!,1378.0894510746002,None,1378.0571917057036,1380.0894510746002,Ich bekomme ein Gehalt und Nebenleistungen.,bekomme,1379.472775387764,None,1382.5062443494796,None,1394.6734673261642,1395.690262079239,1396.090350151062,None,./data/Subject_03/Session_03/Exp_data/2020_Jul_20_1223/rec_QA_run_02_block_000_trial_023.wav,,,,03,03,English,A2,True,False,True,False,False,True,True,True,True,True,True,True,No,2,No,No,No,No,2020_Jul_20_1223,nibs_stage_1,3.2.3,59.97826410259344,
2,0,2,0,,,,,0,0,0,0,24,0,24,0,,,,,,,,,,,,,,,,,,,,,,,,,,,,,,,,,,,,,,,,,,,,,,,,,Listen to the question and speak out your answer!,1399.1244552135468,None,1399.0916367530822,1401.1239631175995,"Der Arzt hat gesagt, ich sähe völlig gesund aus.",gesagt,1400.473863530159,None,1403.9407054662704,None,1415.6746334314346,1416.6915431022644,1417.0913960933685,None,./data/Subject_03/Session_03/Exp_data/2020_Jul_20_1223/rec_QA_run_02_block_000_trial_024.wav,,,,03,03,English,A2,True,False,True,False,False,True,True,True,True,True,True,True,No,2,No,No,No,No,2020_Jul_20_1223,nibs_stage_1,3.2.3,59.97826410259344,
2,0,2,0,,,,,0,0,0,0,,,,,,,,,,,,,,,,,,,,,,,,,,,,,,,,,,,,,,,,,,1421.141606092453,None,,,,,,,,,,,,,,,,,,,,,,,,,,,,,03,03,English,A2,True,False,True,False,False,True,True,True,True,True,True,True,No,2,No,No,No,No,2020_Jul_20_1223,nibs_stage_1,3.2.3,59.97826410259344,
2,0,2,0,,,,,1,0,1,0,0,0,0,0,,,,,,,,,,,,,,,,,,,,,,,,,,,,,,,,,,,,,,,,,,,,,,,,,Listen to the question and speak out your answer!,1435.2590990066528,None,1435.227463912964,1437.259182214737,"Mein Handy ist schon eingeschaltet, so dass Sie mich jederzeit anrufen können.",anrufen,1436.6090814352035,None,1441.6096424341201,None,1451.8098623037338,None,1453.226683139801,None,./data/Subject_03/Session_03/Exp_data/2020_Jul_20_1223/rec_QA_run_02_block_001_trial_000.wav,,,,03,03,English,A2,True,False,True,False,False,True,True,True,True,True,True,True,No,2,No,No,No,No,2020_Jul_20_1223,nibs_stage_1,3.2.3,59.97826410259344,
2,0,2,0,,,,,1,0,1,0,1,0,1,0,,,,,,,,,,,,,,,,,,,,,,,,,,,,,,,,,,,,,,,,,,,,,,,,,Listen to the question and speak out your answer!,1456.2949450016022,None,1456.2780139684676,1458.326966047287,Ein junges Ehepaar ist gerade in das neue Haus neben unserem eingezogen.,eingezogen,1457.6768354654312,1462.2275321483612,1462.6104523420333,None,1472.877666401863,None,1474.294399023056,None,./data/Subject_03/Session_03/Exp_data/2020_Jul_20_1223/rec_QA_run_02_block_001_trial_001.wav,,,,03,03,English,A2,True,False,True,False,False,True,True,True,True,True,True,True,No,2,No,No,No,No,2020_Jul_20_1223,nibs_stage_1,3.2.3,59.97826410259344,
2,0,2,0,,,,,1,0,1,0,2,0,2,0,,,,,,,,,,,,,,,,,,,,,,,,,,,,,,,,,,,,,,,,,,,,,,,,,Listen to the question and speak out your answer!,1477.3785190582275,None,1477.3457260370253,1479.3779561519623,Der Prüfer hat die Erfüllung gesetzlicher Auflagen durch das Unternehmen kontrolliert.,kontrolliert,1478.7279354810714,None,1483.928198504448,None,1493.928773331642,None,1495.3454580307007,None,./data/Subject_03/Session_03/Exp_data/2020_Jul_20_1223/rec_QA_run_02_block_001_trial_002.wav,,,,03,03,English,A2,True,False,True,False,False,True,True,True,True,True,True,True,No,2,No,No,No,No,2020_Jul_20_1223,nibs_stage_1,3.2.3,59.97826410259344,
2,0,2,0,,,,,1,0,1,0,3,0,3,0,,,,,,,,,,,,,,,,,,,,,,,,,,,,,,,,,,,,,,,,,,,,,,,,,Listen to the question and speak out your answer!,1498.4138441085815,None,1498.3968129396437,1500.4457340240479,"Wenn du dich einen Moment ausruhst, kannst du mehr leisten.",ausruhst,1499.76251142025,1502.9458780288696,1503.3292233228683,None,1514.9631673574447,None,1516.3800880908966,None,./data/Subject_03/Session_03/Exp_data/2020_Jul_20_1223/rec_QA_run_02_block_001_trial_003.wav,,,,03,03,English,A2,True,False,True,False,False,True,True,True,True,True,True,True,No,2,No,No,No,No,2020_Jul_20_1223,nibs_stage_1,3.2.3,59.97826410259344,
2,0,2,0,,,,,1,0,1,0,4,0,4,0,,,,,,,,,,,,,,,,,,,,,,,,,,,,,,,,,,,,,,,,,,,,,,,,,Listen to the question and speak out your answer!,1519.4473230838776,None,1519.4145847320556,1521.4468500614166,Howard Carter hat viele Schätze im Grab von Tutanchamun gefunden.,gefunden,1520.830129313469,None,1525.2304744005203,1526.247069120407,1536.0141765356063,None,1537.431057214737,None,./data/Subject_03/Session_03/Exp_data/2020_Jul_20_1223/rec_QA_run_02_block_001_trial_004.wav,,,,03,03,English,A2,True,False,True,False,False,True,True,True,True,True,True,True,No,2,No,No,No,No,2020_Jul_20_1223,nibs_stage_1,3.2.3,59.97826410259344,
2,0,2,0,,,,,1,0,1,0,5,0,5,0,,,,,,,,,,,,,,,,,,,,,,,,,,,,,,,,,,,,,,,,,,,,,,,,,Listen to the question and speak out your answer!,1540.4984731674194,None,1540.4656826019286,1542.4979400634766,Das Bild kann mir die Uhrzeitangabe verstehen helfen.,helfen,1541.8812293291091,None,1545.414760518074,None,1557.0487243413925,1558.0654220581055,1558.4654431343079,None,./data/Subject_03/Session_03/Exp_data/2020_Jul_20_1223/rec_QA_run_02_block_001_trial_005.wav,,,,03,03,English,A2,True,False,True,False,False,True,True,True,True,True,True,True,No,2,No,No,No,No,2020_Jul_20_1223,nibs_stage_1,3.2.3,59.97826410259344,
2,0,2,0,,,,,1,0,1,0,6,0,6,0,,,,,,,,,,,,,,,,,,,,,,,,,,,,,,,,,,,,,,,,,,,,,,,,,Listen to the question and speak out your answer!,1561.5162642002106,None,1561.4834343671798,1563.5156910419464,Muss ich mit dem Bus fahren oder kann ich zu Fuß gehen?,gehen,1562.8656834840774,1565.9491600990295,1566.3658773183822,1567.3825690746307,1578.0665454149246,None,1579.4832470417023,None,./data/Subject_03/Session_03/Exp_data/2020_Jul_20_1223/rec_QA_run_02_block_001_trial_006.wav,,,,03,03,English,A2,True,False,True,False,False,True,True,True,True,True,True,True,No,2,No,No,No,No,2020_Jul_20_1223,nibs_stage_1,3.2.3,59.97826410259344,
2,0,2,0,,,,,1,0,1,0,7,0,7,0,,,,,,,,,,,,,,,,,,,,,,,,,,,,,,,,,,,,,,,,,,,,,,,,,Listen to the question and speak out your answer!,1582.5673801898956,None,1582.534563088417,1584.5669422149658,Zu Ostern gibt es für Kinder Ostereier und Süßigkeiten.,gibt,1583.9167854070663,None,1588.083698439598,None,1599.1176013231277,1600.1344091892242,1600.5346031188965,None,./data/Subject_03/Session_03/Exp_data/2020_Jul_20_1223/rec_QA_run_02_block_001_trial_007.wav,,,,03,03,English,A2,True,False,True,False,False,True,True,True,True,True,True,True,No,2,No,No,No,No,2020_Jul_20_1223,nibs_stage_1,3.2.3,59.97826410259344,
2,0,2,0,,,,,1,0,1,0,8,0,8,0,,,,,,,,,,,,,,,,,,,,,,,,,,,,,,,,,,,,,,,,,,,,,,,,,Listen to the question and speak out your answer!,1603.6017100811005,None,1603.568998670578,1605.6012480258942,An unserem Baum hängen viele reife Birnen,hängen,1604.9845644712448,None,1608.1848634958267,None,1620.1520094156265,None,1621.5686540603638,None,./data/Subject_03/Session_03/Exp_data/2020_Jul_20_1223/rec_QA_run_02_block_001_trial_008.wav,,,,03,03,English,A2,True,False,True,False,False,True,True,True,True,True,True,True,No,2,No,No,No,No,2020_Jul_20_1223,nibs_stage_1,3.2.3,59.97826410259344,
2,0,2,0,,,,,1,0,1,0,9,0,9,0,,,,,,,,,,,,,,,,,,,,,,,,,,,,,,,,,,,,,,,,,,,,,,,,,Listen to the question and speak out your answer!,1624.6194360256195,None,1624.6034925937652,1626.652333021164,Susi isst zum Frühstück gerne ein weiches Ei.,isst,1626.002235341072,1629.019091129303,1629.4025015115737,1630.4192161560059,1641.1865875005722,1642.2031672000885,1642.6032090187073,None,./data/Subject_03/Session_03/Exp_data/2020_Jul_20_1223/rec_QA_run_02_block_001_trial_009.wav,,,,03,03,English,A2,True,False,True,False,False,True,True,True,True,True,True,True,No,2,No,No,No,No,2020_Jul_20_1223,nibs_stage_1,3.2.3,59.97826410259344,
2,0,2,0,,,,,1,0,1,0,10,0,10,0,,,,,,,,,,,,,,,,,,,,,,,,,,,,,,,,,,,,,,,,,,,,,,,,,Listen to the question and speak out your answer!,1645.6702980995178,None,1645.6546750307082,1647.703450202942,An Regentagen benutzen die Leute einen Regenschirm.,benutzen,1647.0534283399581,1650.4036061763763,1650.7870535135269,None,1662.2541743993759,1663.271008014679,1663.6710200309753,None,./data/Subject_03/Session_03/Exp_data/2020_Jul_20_1223/rec_QA_run_02_block_001_trial_010.wav,,,,03,03,English,A2,True,False,True,False,False,True,True,True,True,True,True,True,No,2,No,No,No,No,2020_Jul_20_1223,nibs_stage_1,3.2.3,59.97826410259344,
2,0,2,0,,,,,1,0,1,0,11,0,11,0,,,,,,,,,,,,,,,,,,,,,,,,,,,,,,,,,,,,,,,,,,,,,,,,,Listen to the question and speak out your answer!,1666.6878941059113,None,1666.6556824922561,1668.6878972053528,"In den Zeitungen , im Radio und im Fernsehen wird regelmäßig über Sport berichtet.",berichtet,1668.0712033987045,None,1673.6715413808822,None,1683.2720765352249,None,1684.6887221336365,None,./data/Subject_03/Session_03/Exp_data/2020_Jul_20_1223/rec_QA_run_02_block_001_trial_011.wav,,,,03,03,English,A2,True,False,True,False,False,True,True,True,True,True,True,True,No,2,No,No,No,No,2020_Jul_20_1223,nibs_stage_1,3.2.3,59.97826410259344,
2,0,2,0,,,,,1,0,1,0,12,0,12,0,,,,,,,,,,,,,,,,,,,,,,,,,,,,,,,,,,,,,,,,,,,,,,,,,Listen to the question and speak out your answer!,1687.723729133606,None,1687.706762099266,1689.7556672096252,Die Kinder haben sich wegen eines Spielzeugs gequält und gestritten.,gestritten,1689.1057323694229,None,1693.439203429222,None,1704.3064424276351,None,1705.7232370376587,None,./data/Subject_03/Session_03/Exp_data/2020_Jul_20_1223/rec_QA_run_02_block_001_trial_012.wav,,,,03,03,English,A2,True,False,True,False,False,True,True,True,True,True,True,True,No,2,No,No,No,No,2020_Jul_20_1223,nibs_stage_1,3.2.3,59.97826410259344,
2,0,2,0,,,,,1,0,1,0,13,0,13,0,,,,,,,,,,,,,,,,,,,,,,,,,,,,,,,,,,,,,,,,,,,,,,,,,Listen to the question and speak out your answer!,1708.7906320095062,None,1708.7578576564788,1710.7902081012726,"Mein Zimmer ist zu unordentlich, also muss ich es aufräumen.",aufräumen,1710.140078473091,None,1714.040628361702,None,1725.3408965349197,None,1726.7575402259827,None,./data/Subject_03/Session_03/Exp_data/2020_Jul_20_1223/rec_QA_run_02_block_001_trial_013.wav,,,,03,03,English,A2,True,False,True,False,False,True,True,True,True,True,True,True,No,2,No,No,No,No,2020_Jul_20_1223,nibs_stage_1,3.2.3,59.97826410259344,
2,0,2,0,,,,,1,0,1,0,14,0,14,0,,,,,,,,,,,,,,,,,,,,,,,,,,,,,,,,,,,,,,,,,,,,,,,,,Listen to the question and speak out your answer!,1729.8412051200867,None,1729.8092680215834,1731.8412342071533,"Oma hat Probleme mit den Zähnen, aber sie fürchtet sich vorm Zahnarzt.",fürchtet,1731.1912733793258,1735.8414130210876,1736.2247645139694,None,1746.3920063257217,1747.4086990356445,1747.8087241649628,None,./data/Subject_03/Session_03/Exp_data/2020_Jul_20_1223/rec_QA_run_02_block_001_trial_014.wav,,,,03,03,English,A2,True,False,True,False,False,True,True,True,True,True,True,True,No,2,No,No,No,No,2020_Jul_20_1223,nibs_stage_1,3.2.3,59.97826410259344,
2,0,2,0,,,,,1,0,1,0,15,0,15,0,,,,,,,,,,,,,,,,,,,,,,,,,,,,,,,,,,,,,,,,,,,,,,,,,Listen to the question and speak out your answer!,1750.8928711414337,None,1750.860110068321,1752.8923120498657,Man kann sich Bilder und Videos von anderen Menschen auf Instagram anschauen.,anschauen,1752.2422944784164,None,1757.142542529106,1758.1592721939087,1767.4431123018264,None,1768.8598201274872,None,./data/Subject_03/Session_03/Exp_data/2020_Jul_20_1223/rec_QA_run_02_block_001_trial_015.wav,,,,03,03,English,A2,True,False,True,False,False,True,True,True,True,True,True,True,No,2,No,No,No,No,2020_Jul_20_1223,nibs_stage_1,3.2.3,59.97826410259344,
2,0,2,0,,,,,1,0,1,0,16,0,16,0,,,,,,,,,,,,,,,,,,,,,,,,,,,,,,,,,,,,,,,,,,,,,,,,,Listen to the question and speak out your answer!,1771.9281930923462,None,1771.9112079381941,1773.9600820541382,Ich empfehle Ihnen unbedingt die traditionale Speise.,empfehle,1773.3101484060287,1776.6602489948273,1777.0435883283615,1778.0602190494537,1788.5108083963394,None,1789.9276690483093,None,./data/Subject_03/Session_03/Exp_data/2020_Jul_20_1223/rec_QA_run_02_block_001_trial_016.wav,,,,03,03,English,A2,True,False,True,False,False,True,True,True,True,True,True,True,No,2,No,No,No,No,2020_Jul_20_1223,nibs_stage_1,3.2.3,59.97826410259344,
2,0,2,0,,,,,1,0,1,0,17,0,17,0,,,,,,,,,,,,,,,,,,,,,,,,,,,,,,,,,,,,,,,,,,,,,,,,,Listen to the question and speak out your answer!,1792.9611852169037,None,1792.9289515972137,1794.961236000061,"Wenn sie sich etwas leiht, bringt sie es immer zurück.",leiht,1794.3114744901657,None,1797.478000330925,None,1809.5119673490524,None,1810.928797006607,None,./data/Subject_03/Session_03/Exp_data/2020_Jul_20_1223/rec_QA_run_02_block_001_trial_017.wav,,,,03,03,English,A2,True,False,True,False,False,True,True,True,True,True,True,True,No,2,No,No,No,No,2020_Jul_20_1223,nibs_stage_1,3.2.3,59.97826410259344,
2,0,2,0,,,,,1,0,1,0,18,0,18,0,,,,,,,,,,,,,,,,,,,,,,,,,,,,,,,,,,,,,,,,,,,,,,,,,Listen to the question and speak out your answer!,1814.0122961997986,None,1813.9804060697554,1816.0122621059418,Die Erklärungen des Lehrers haben absolut Sinn ergeben.,ergeben,1815.3956143140792,1818.8124470710754,1819.1957904577255,1820.2125301361084,1830.5966853380203,None,1832.0131261348724,None,./data/Subject_03/Session_03/Exp_data/2020_Jul_20_1223/rec_QA_run_02_block_001_trial_018.wav,,,,03,03,English,A2,True,False,True,False,False,True,True,True,True,True,True,True,No,2,No,No,No,No,2020_Jul_20_1223,nibs_stage_1,3.2.3,59.97826410259344,
2,0,2,0,,,,,1,0,1,0,19,0,19,0,,,,,,,,,,,,,,,,,,,,,,,,,,,,,,,,,,,,,,,,,,,,,,,,,Listen to the question and speak out your answer!,1835.046795129776,None,1835.014511680603,1837.0467550754547,Wir essen Salat oft ungekocht.,essen,1836.4300593614578,1838.6801571846008,1839.0635313272476,1840.0802130699158,1851.6308345079422,None,1853.0476109981537,None,./data/Subject_03/Session_03/Exp_data/2020_Jul_20_1223/rec_QA_run_02_block_001_trial_019.wav,,,,03,03,English,A2,True,False,True,False,False,True,True,True,True,True,True,True,No,2,No,No,No,No,2020_Jul_20_1223,nibs_stage_1,3.2.3,59.97826410259344,
2,0,2,0,,,,,1,0,1,0,20,0,20,0,,,,,,,,,,,,,,,,,,,,,,,,,,,,,,,,,,,,,,,,,,,,,,,,,Listen to the question and speak out your answer!,1856.0813190937042,None,1856.048920726776,1858.0811650753021,Die Mieter wollen die Vertragsbedingungen ändern.,ändern,1857.4644843816757,None,1860.5646404504776,1861.5813660621643,1872.665339398384,None,1874.082034111023,None,./data/Subject_03/Session_03/Exp_data/2020_Jul_20_1223/rec_QA_run_02_block_001_trial_020.wav,,,,03,03,English,A2,True,False,True,False,False,True,True,True,True,True,True,True,No,2,No,No,No,No,2020_Jul_20_1223,nibs_stage_1,3.2.3,59.97826410259344,
2,0,2,0,,,,,1,0,1,0,21,0,21,0,,,,,,,,,,,,,,,,,,,,,,,,,,,,,,,,,,,,,,,,,,,,,,,,,Listen to the question and speak out your answer!,1877.117213010788,None,1877.0833567142486,1879.1156442165375,Mein Sohn wurde letztes Jahr geboren.,geboren,1878.4989473104476,1880.8490240573883,1881.2323884248733,1882.2492101192474,1893.699731516838,None,1895.116447210312,None,./data/Subject_03/Session_03/Exp_data/2020_Jul_20_1223/rec_QA_run_02_block_001_trial_021.wav,,,,03,03,English,A2,True,False,True,False,False,True,True,True,True,True,True,True,No,2,No,No,No,No,2020_Jul_20_1223,nibs_stage_1,3.2.3,59.97826410259344,
2,0,2,0,,,,,1,0,1,0,22,0,22,0,,,,,,,,,,,,,,,,,,,,,,,,,,,,,,,,,,,,,,,,,,,,,,,,,Listen to the question and speak out your answer!,1898.151985168457,None,1898.1178487300872,1900.1500561237335,Ich möchte meinen tiefen Dank für seine Hilfe aussprechen.,aussprechen,1899.5334514856338,1902.8838059902191,1903.2668754339218,None,1914.7341243505477,1915.750871181488,1916.1508660316467,None,./data/Subject_03/Session_03/Exp_data/2020_Jul_20_1223/rec_QA_run_02_block_001_trial_022.wav,,,,03,03,English,A2,True,False,True,False,False,True,True,True,True,True,True,True,No,2,No,No,No,No,2020_Jul_20_1223,nibs_stage_1,3.2.3,59.97826410259344,
2,0,2,0,,,,,1,0,1,0,23,0,23,0,,,,,,,,,,,,,,,,,,,,,,,,,,,,,,,,,,,,,,,,,,,,,,,,,Listen to the question and speak out your answer!,1919.1857261657715,None,1919.1689489126204,1921.2178192138672,Ich lese gerne ein Buch vor dem Schlafengehen.,lese,1920.5677813768386,1923.3181610107422,1923.7012874364852,None,1935.7685105085372,None,1937.1853420734406,None,./data/Subject_03/Session_03/Exp_data/2020_Jul_20_1223/rec_QA_run_02_block_001_trial_023.wav,,,,03,03,English,A2,True,False,True,False,False,True,True,True,True,True,True,True,No,2,No,No,No,No,2020_Jul_20_1223,nibs_stage_1,3.2.3,59.97826410259344,
2,0,2,0,,,,,1,0,1,0,24,0,24,0,,,,,,,,,,,,,,,,,,,,,,,,,,,,,,,,,,,,,,,,,,,,,,,,,Listen to the question and speak out your answer!,1940.2537159919739,None,1940.2200976371764,1942.2523250579834,Normalerweise lese ich Zeitungen online.,lese,1941.635560441017,None,1945.0023802995681,None,1956.8363744497299,1957.8530061244965,1958.2530641555786,None,./data/Subject_03/Session_03/Exp_data/2020_Jul_20_1223/rec_QA_run_02_block_001_trial_024.wav,,,,03,03,English,A2,True,False,True,False,False,True,True,True,True,True,True,True,No,2,No,No,No,No,2020_Jul_20_1223,nibs_stage_1,3.2.3,59.97826410259344,
2,0,2,0,,,,,1,0,1,0,,,,,,,,,,,,,,,,,,,,,,,,,,,,,,,,,,,,,,,,,,1962.270092010498,None,,,,,,,,,,,,,,,,,,,,,,,,,,,,,03,03,English,A2,True,False,True,False,False,True,True,True,True,True,True,True,No,2,No,No,No,No,2020_Jul_20_1223,nibs_stage_1,3.2.3,59.97826410259344,
2,0,2,0,,,,,,,,,,,,,,,,,,,,,,,,,,,,,,,,,,,,,,,,,,,,,,,,,,,,,,,,,,,,,,,,,,,,,,,,,,,,,Please remain seated until further instruction via the earphone.,60.6374671459198,None,03,03,English,A2,True,False,True,False,False,True,True,True,True,True,True,True,No,2,No,No,No,No,2020_Jul_20_1223,nibs_stage_1,3.2.3,59.97826410259344,
