run.thisRepN,run.thisTrialN,run.thisN,run.thisIndex,QA_block.thisRepN,QA_block.thisTrialN,QA_block.thisN,QA_block.thisIndex,QA_trial.thisRepN,QA_trial.thisTrialN,QA_trial.thisN,QA_trial.thisIndex,fade_in_text.text,fade_in_text.started,fade_in_text.stopped,RS_intro_title.started,RS_intro_title.stopped,RS_intro_text.text,RS_intro_text.started,RS_intro_text.stopped,RS_intro_audio.started,RS_intro_audio.stopped,RS_rec_text.text,RS_rec_text.started,RS_rec_text.stopped,Pause_cont.started,Pause_cont.stopped,QA_intro_title.started,QA_intro_title.stopped,QA_intro_text.text,QA_intro_text.started,QA_intro_text.stopped,QA_intro_audio.started,QA_intro_audio.stopped,QA_intro_cont.started,QA_intro_cont.stopped,QA_rec_text.text,QA_rec_text.started,QA_rec_text.stopped,QA_rec_beep_hint.started,QA_rec_beep_hint.stopped,QA_rec_question.sen_text,QA_rec_question.cen_text,QA_rec_question.started,QA_rec_question.stopped,QA_rec_beep_start.started,QA_rec_beep_start.stopped,QA_rec_beep_end.started,QA_rec_beep_end.stopped,QA_rec_break.started,QA_rec_break.stopped,filename,participant,session,First language,German level,Full_screen,Instruction,Intro,Artifact,Cali_pre,Fade_in_out,Artifact_within,Resting_State,QA,Pause,Cali_post,End,Breakpoint_Cali_pre_trial,Breakpoint_Run,Breakpoint_RS_block,Breakpoint_QA_block,Breakpoint_QA_trial,Breakpoint_Cali_post_trial,date,expName,psychopyVersion,frameRate,
1,0,1,0,0,0,0,0,0,0,0,0,Please remain seated until further instruction via the earphone.,60.44410300254822,None,270.85464000701904,None," - Task: Keep seated and relaxed with either      
             opening or closing eyes                  
 - Beep sound with decreasing pitch: Block finish 
",270.85464000701904,None,270.85481805801396,None,"Please keep relaxed and close your eyes.
",293.87270998954773,473.88169407844543,477.2652349472046,None,491.5833101272583,None," - Task: Listen to the question& Speak out answer 
 - Melodious beep sound: Trial start              
 - Silent sound (blank): censored word            
 - Beep sound with increasing pitch: Rec. start   
 - Beep sound with decreasing pitch: Rec. finish  
",491.5833101272583,None,491.58255825042727,None,530.9681179523468,None,Listen to the question and speak out your answer!,534.034914970398,None,534.0181761264802,536.0183959007263,"Schultigung, Ich habe den falschen Knopf gedrückt.",gedrückt,535.4183600902558,538.3186159133911,538.7184520721436,539.7189469337463,550.6194189548493,None,552.0194900035858,553.0195260047913,./data/Subject_04/Session_01/Exp_data/2020_Jul_11_1137/rec_QA_run_01_block_000_trial_000.wav,04,01,Norwegian,B1,True,False,True,False,False,True,True,True,True,True,True,True,No,1,No,No,No,No,2020_Jul_11_1137,nibs_stage_1,3.2.3,59.92975838369983,
1,0,1,0,0,0,0,0,1,0,1,0,,,,,,,,,,,,,,,,,,,,,,,,,Listen to the question and speak out your answer!,555.0862281322479,None,555.0695651054383,557.0697150230408,"Ich darf Sie bitten, meinem Antrag zu entsprechen.",bitten,556.4530280590058,None,559.6698790550232,None,571.6540540218353,None,573.053906917572,574.0539770126343,./data/Subject_04/Session_01/Exp_data/2020_Jul_11_1137/rec_QA_run_01_block_000_trial_001.wav,04,01,Norwegian,B1,True,False,True,False,False,True,True,True,True,True,True,True,No,1,No,No,No,No,2020_Jul_11_1137,nibs_stage_1,3.2.3,59.92975838369983,
1,0,1,0,0,0,0,0,2,0,2,0,,,,,,,,,,,,,,,,,,,,,,,,,Listen to the question and speak out your answer!,576.1211740970612,None,576.120683002472,578.1208610534668,Tomas fischt im Fluss und wird Fisch zum Abendessen essen.,fischt,577.5041659832001,None,581.5376380443573,None,592.7049880981446,None,594.1050131320953,595.1051409244537,./data/Subject_04/Session_01/Exp_data/2020_Jul_11_1137/rec_QA_run_01_block_000_trial_002.wav,04,01,Norwegian,B1,True,False,True,False,False,True,True,True,True,True,True,True,No,1,No,No,No,No,2020_Jul_11_1137,nibs_stage_1,3.2.3,59.92975838369983,
1,0,1,0,0,0,0,0,3,0,3,0,,,,,,,,,,,,,,,,,,,,,,,,,Listen to the question and speak out your answer!,597.1885259151459,None,597.1725230693818,599.1722431182861,"In Europa gibt es vier Jahrezeiten, am Zentralafrika nur eine.",gibt,598.5719951152802,603.0555150508881,603.4555490970612,None,613.7562359333039,None,615.1561191082001,616.1562039852142,./data/Subject_04/Session_01/Exp_data/2020_Jul_11_1137/rec_QA_run_01_block_000_trial_003.wav,04,01,Norwegian,B1,True,False,True,False,False,True,True,True,True,True,True,True,No,1,No,No,No,No,2020_Jul_11_1137,nibs_stage_1,3.2.3,59.92975838369983,
1,0,1,0,0,0,0,0,4,0,4,0,,,,,,,,,,,,,,,,,,,,,,,,,Listen to the question and speak out your answer!,618.2227919101715,None,618.2063600540162,620.206295967102,Das Kind kann die Tischkante noch nicht erreichen.,erreichen,619.6061690807343,None,622.6564210414887,None,634.8069621086121,None,636.2071180343628,637.2071080207825,./data/Subject_04/Session_01/Exp_data/2020_Jul_11_1137/rec_QA_run_01_block_000_trial_004.wav,04,01,Norwegian,B1,True,False,True,False,False,True,True,True,True,True,True,True,No,1,No,No,No,No,2020_Jul_11_1137,nibs_stage_1,3.2.3,59.92975838369983,
1,0,1,0,0,0,0,0,5,0,5,0,,,,,,,,,,,,,,,,,,,,,,,,,Listen to the question and speak out your answer!,639.2748510837555,None,639.2571471214295,641.2582290172577,"Ein Flüchtling ist jemand , der aus Not seine Heimat verlässt.",verlässt,640.6577039718628,644.2576990127563,644.657667016983,None,655.8416689395905,None,657.2417271137238,658.2419490814209,./data/Subject_04/Session_01/Exp_data/2020_Jul_11_1137/rec_QA_run_01_block_000_trial_005.wav,04,01,Norwegian,B1,True,False,True,False,False,True,True,True,True,True,True,True,No,1,No,No,No,No,2020_Jul_11_1137,nibs_stage_1,3.2.3,59.92975838369983,
1,0,1,0,0,0,0,0,6,0,6,0,,,,,,,,,,,,,,,,,,,,,,,,,Listen to the question and speak out your answer!,660.3250060081482,None,660.3084521770478,662.3083679676056,"Ob die bereitgestellte Information korrekt ist, müssen wir prüfen.",prüfen,661.7084339618683,None,666.1921139717102,667.1919560432434,676.9094348907471,None,678.3095149993896,679.3095700740814,./data/Subject_04/Session_01/Exp_data/2020_Jul_11_1137/rec_QA_run_01_block_000_trial_006.wav,04,01,Norwegian,B1,True,False,True,False,False,True,True,True,True,True,True,True,No,1,No,No,No,No,2020_Jul_11_1137,nibs_stage_1,3.2.3,59.92975838369983,
1,0,1,0,0,0,0,0,7,0,7,0,,,,,,,,,,,,,,,,,,,,,,,,,Listen to the question and speak out your answer!,681.3763880729675,None,681.3596091747285,683.3598239421844,Das Geheimnis darfst du niemand sagen.,sagen,682.7430559158325,None,685.476543045044,None,697.9438079357147,None,699.3439650535583,700.3440129756927,./data/Subject_04/Session_01/Exp_data/2020_Jul_11_1137/rec_QA_run_01_block_000_trial_007.wav,04,01,Norwegian,B1,True,False,True,False,False,True,True,True,True,True,True,True,No,1,No,No,No,No,2020_Jul_11_1137,nibs_stage_1,3.2.3,59.92975838369983,
1,0,1,0,0,0,0,0,8,0,8,0,,,,,,,,,,,,,,,,,,,,,,,,,Listen to the question and speak out your answer!,702.4115109443665,None,702.4107552051545,704.4108979701996,Wir haben die Buchung per E-Mail bestätigt.,bestätigt,703.7942050457001,None,706.7611390113831,707.7610769271851,718.9949799537659,None,720.3950700759888,721.3951299190521,./data/Subject_04/Session_01/Exp_data/2020_Jul_11_1137/rec_QA_run_01_block_000_trial_008.wav,04,01,Norwegian,B1,True,False,True,False,False,True,True,True,True,True,True,True,No,1,No,No,No,No,2020_Jul_11_1137,nibs_stage_1,3.2.3,59.92975838369983,
1,0,1,0,0,0,0,0,9,0,9,0,,,,,,,,,,,,,,,,,,,,,,,,,Listen to the question and speak out your answer!,723.4283549785614,None,723.4118350505829,725.411787033081,Rauchen schadet deiner Lunge.,schadet,724.7950449943543,726.6954400539398,727.1122630596161,None,739.9960590362549,None,741.3962190151215,742.3960161209106,./data/Subject_04/Session_01/Exp_data/2020_Jul_11_1137/rec_QA_run_01_block_000_trial_009.wav,04,01,Norwegian,B1,True,False,True,False,False,True,True,True,True,True,True,True,No,1,No,No,No,No,2020_Jul_11_1137,nibs_stage_1,3.2.3,59.92975838369983,
1,0,1,0,0,0,0,0,10,0,10,0,,,,,,,,,,,,,,,,,,,,,,,,,Listen to the question and speak out your answer!,744.4797420501709,None,744.4628441810609,746.4628970623016,"Es ist vorstellbar, dass er diese schwierige Prüfung nicht bestehen kann. ",bestehen,745.8462000846863,749.9803590774536,750.3970459461212,None,761.0470200538635,None,762.4470829963684,763.4470570087433,./data/Subject_04/Session_01/Exp_data/2020_Jul_11_1137/rec_QA_run_01_block_000_trial_010.wav,04,01,Norwegian,B1,True,False,True,False,False,True,True,True,True,True,True,True,No,1,No,No,No,No,2020_Jul_11_1137,nibs_stage_1,3.2.3,59.92975838369983,
1,0,1,0,0,0,0,0,11,0,11,0,,,,,,,,,,,,,,,,,,,,,,,,,Listen to the question and speak out your answer!,765.530590057373,None,765.5145240306855,767.5140061378479,"Es wird nicht empfohlen, die Batterie völlig zu entladen.",empfohlen,766.9139479160309,770.1641829013824,770.5808480739594,771.580894947052,782.1147919654846,None,783.5148689746857,784.514946937561,./data/Subject_04/Session_01/Exp_data/2020_Jul_11_1137/rec_QA_run_01_block_000_trial_011.wav,04,01,Norwegian,B1,True,False,True,False,False,True,True,True,True,True,True,True,No,1,No,No,No,No,2020_Jul_11_1137,nibs_stage_1,3.2.3,59.92975838369983,
1,0,1,0,0,0,0,0,12,0,12,0,,,,,,,,,,,,,,,,,,,,,,,,,Listen to the question and speak out your answer!,786.5818870067596,None,786.5649860382081,788.5651259422302,Nikolaus Kopernikus beschreibt das heliozentrische Weltbild.,beschreibt,787.9484930992127,None,792.3320940494538,793.3320491313934,803.1325961112976,None,804.5326430797577,805.5326991081238,./data/Subject_04/Session_01/Exp_data/2020_Jul_11_1137/rec_QA_run_01_block_000_trial_012.wav,04,01,Norwegian,B1,True,False,True,False,False,True,True,True,True,True,True,True,No,1,No,No,No,No,2020_Jul_11_1137,nibs_stage_1,3.2.3,59.92975838369983,
1,0,1,0,0,0,0,0,13,0,13,0,,,,,,,,,,,,,,,,,,,,,,,,,Listen to the question and speak out your answer!,807.5995419025421,None,807.5828592300415,809.5829091072083,Wir sind verlobt und wollen nächstes Jahr heiraten.,heiraten,808.9828918933869,None,812.5163858890534,None,824.1836598873139,825.1837110519409,825.5837450027466,826.583792924881,./data/Subject_04/Session_01/Exp_data/2020_Jul_11_1137/rec_QA_run_01_block_000_trial_013.wav,04,01,Norwegian,B1,True,False,True,False,False,True,True,True,True,True,True,True,No,1,No,No,No,No,2020_Jul_11_1137,nibs_stage_1,3.2.3,59.92975838369983,
1,0,1,0,0,0,0,0,14,0,14,0,,,,,,,,,,,,,,,,,,,,,,,,,Listen to the question and speak out your answer!,828.6353569030762,None,828.633832025528,830.6341240406036,"Es gibt viele Vorteile, wenn man die öffentlichen Verkehrsmittel benutzt.",benutzt,830.0173240661621,None,834.6509850978852,835.6509420871735,845.201588010788,None,846.6017339229584,847.6017880439758,./data/Subject_04/Session_01/Exp_data/2020_Jul_11_1137/rec_QA_run_01_block_000_trial_014.wav,04,01,Norwegian,B1,True,False,True,False,False,True,True,True,True,True,True,True,No,1,No,No,No,No,2020_Jul_11_1137,nibs_stage_1,3.2.3,59.92975838369983,
1,0,1,0,0,0,0,0,15,0,15,0,,,,,,,,,,,,,,,,,,,,,,,,,Listen to the question and speak out your answer!,849.6854591369629,None,849.6686001300812,851.6687269210815,"Es ist nicht erlaubt für alle Autos, vor dem Notausgang zu parken.",parken,851.0519679546356,855.118891954422,855.5190940856934,None,866.2527800559998,None,867.6528611183167,868.6529409885406,./data/Subject_04/Session_01/Exp_data/2020_Jul_11_1137/rec_QA_run_01_block_000_trial_015.wav,04,01,Norwegian,B1,True,False,True,False,False,True,True,True,True,True,True,True,No,1,No,No,No,No,2020_Jul_11_1137,nibs_stage_1,3.2.3,59.92975838369983,
1,0,1,0,0,0,0,0,16,0,16,0,,,,,,,,,,,,,,,,,,,,,,,,,Listen to the question and speak out your answer!,870.7200040817261,None,870.7029811859131,872.7031509876251,"Er benutzt Twitter, um mit anderen zu chatten.",benutzt,872.1030589103699,None,875.3032659053803,None,887.3039608955384,888.3039591312408,888.7039511203766,889.7040050029755,./data/Subject_04/Session_01/Exp_data/2020_Jul_11_1137/rec_QA_run_01_block_000_trial_016.wav,04,01,Norwegian,B1,True,False,True,False,False,True,True,True,True,True,True,True,No,1,No,No,No,No,2020_Jul_11_1137,nibs_stage_1,3.2.3,59.92975838369983,
1,0,1,0,0,0,0,0,17,0,17,0,,,,,,,,,,,,,,,,,,,,,,,,,Listen to the question and speak out your answer!,891.7712609767914,None,891.7540441036225,893.7544529438019,Der Präsident diskutierte das Thema auf der Pressekonferenz nicht.,diskutierte,893.1375189781189,897.3710780143738,897.7713259220124,None,908.3383069992066,None,909.7383890151978,910.7384679317474,./data/Subject_04/Session_01/Exp_data/2020_Jul_11_1137/rec_QA_run_01_block_000_trial_017.wav,04,01,Norwegian,B1,True,False,True,False,False,True,True,True,True,True,True,True,No,1,No,No,No,No,2020_Jul_11_1137,nibs_stage_1,3.2.3,59.92975838369983,
1,0,1,0,0,0,0,0,18,0,18,0,,,,,,,,,,,,,,,,,,,,,,,,,Listen to the question and speak out your answer!,912.822653055191,None,912.8050752162934,914.8053340911865,Das Volleyballspiel wird in einer Sporthalle ausgetragen.,ausgetragen,914.1886468887329,None,918.0054279327393,None,929.3893390655518,None,930.7894759178162,931.789568901062,./data/Subject_04/Session_01/Exp_data/2020_Jul_11_1137/rec_QA_run_01_block_000_trial_018.wav,04,01,Norwegian,B1,True,False,True,False,False,True,True,True,True,True,True,True,No,1,No,No,No,No,2020_Jul_11_1137,nibs_stage_1,3.2.3,59.92975838369983,
1,0,1,0,0,0,0,0,19,0,19,0,,,,,,,,,,,,,,,,,,,,,,,,,Listen to the question and speak out your answer!,933.8570199012756,None,933.8564050674439,935.8563840389252,Der Zahnarzt untersuchte meine Zunge genau.,untersuchte,935.2397399902344,None,938.5064860343933,939.5066161155701,950.4402359485626,None,951.8403759002686,952.8405270576477,./data/Subject_04/Session_01/Exp_data/2020_Jul_11_1137/rec_QA_run_01_block_000_trial_019.wav,04,01,Norwegian,B1,True,False,True,False,False,True,True,True,True,True,True,True,No,1,No,No,No,No,2020_Jul_11_1137,nibs_stage_1,3.2.3,59.92975838369983,
1,0,1,0,0,0,0,0,20,0,20,0,,,,,,,,,,,,,,,,,,,,,,,,,Listen to the question and speak out your answer!,954.9915080070496,None,954.9739010810853,956.974102973938,Bist du schon mal auf einem Pony geritten? ,geritten,956.3575340270996,None,959.05765209198,None,971.5580039978028,None,972.9581599235535,973.9581320285797,./data/Subject_04/Session_01/Exp_data/2020_Jul_11_1137/rec_QA_run_01_block_000_trial_020.wav,04,01,Norwegian,B1,True,False,True,False,False,True,True,True,True,True,True,True,No,1,No,No,No,No,2020_Jul_11_1137,nibs_stage_1,3.2.3,59.92975838369983,
1,0,1,0,0,0,0,0,21,0,21,0,,,,,,,,,,,,,,,,,,,,,,,,,Listen to the question and speak out your answer!,976.0416340827942,None,976.0249360084534,978.0250859260559,"Ich nehme lieber den Bus, da gibt es nicht so viele Haltestellen.",gibt,977.4249769210816,981.3920121192932,981.7919550895691,None,992.6260999202728,None,994.026123046875,995.0261540412903,./data/Subject_04/Session_01/Exp_data/2020_Jul_11_1137/rec_QA_run_01_block_000_trial_021.wav,04,01,Norwegian,B1,True,False,True,False,False,True,True,True,True,True,True,True,No,1,No,No,No,No,2020_Jul_11_1137,nibs_stage_1,3.2.3,59.92975838369983,
1,0,1,0,0,0,0,0,22,0,22,0,,,,,,,,,,,,,,,,,,,,,,,,,Listen to the question and speak out your answer!,997.0761771202087,None,997.0595261573792,999.0594310760498,"Das gute Wetter wird halten, weil ich keine Wolken sehe.",halten,998.4594739437103,1001.7929019927979,1002.1929811000824,None,1013.6604999065399,None,1015.0607559680939,1016.0606191158295,./data/Subject_04/Session_01/Exp_data/2020_Jul_11_1137/rec_QA_run_01_block_000_trial_022.wav,04,01,Norwegian,B1,True,False,True,False,False,True,True,True,True,True,True,True,No,1,No,No,No,No,2020_Jul_11_1137,nibs_stage_1,3.2.3,59.92975838369983,
1,0,1,0,0,0,0,0,23,0,23,0,,,,,,,,,,,,,,,,,,,,,,,,,Listen to the question and speak out your answer!,1018.1272020339966,None,1018.1106582164765,1020.1106169223785,Die Polizei hat die Einzelheiten des gestohlenen Autos auf einem Zettel notiert.,notiert,1019.5104940891266,1024.411062002182,1024.8110879421233,None,1034.7116609573363,None,1036.1115810871124,1037.1117079257965,./data/Subject_04/Session_01/Exp_data/2020_Jul_11_1137/rec_QA_run_01_block_000_trial_023.wav,04,01,Norwegian,B1,True,False,True,False,False,True,True,True,True,True,True,True,No,1,No,No,No,No,2020_Jul_11_1137,nibs_stage_1,3.2.3,59.92975838369983,
1,0,1,0,0,0,0,0,24,0,24,0,,,,,,,,,,,,,,,,,,,,,,,,,Listen to the question and speak out your answer!,1039.1787939071655,None,1039.1617470264434,1041.1619601249695,"Die Schneiderin änderte das Kleid, weil das Kleid zu groß ist.",änderte,1040.56191906929,1044.4952139854431,1044.8952580451964,None,1055.7624889373778,1056.762610912323,1057.1627490520477,1058.162812948227,./data/Subject_04/Session_01/Exp_data/2020_Jul_11_1137/rec_QA_run_01_block_000_trial_024.wav,04,01,Norwegian,B1,True,False,True,False,False,True,True,True,True,True,True,True,No,1,No,No,No,No,2020_Jul_11_1137,nibs_stage_1,3.2.3,59.92975838369983,
1,0,1,0,0,0,0,0,,,,,,,,,,,,,,,,,,1061.2127749919891,None,,,,,,,,,,,,,,,,,,,,,,,,,,04,01,Norwegian,B1,True,False,True,False,False,True,True,True,True,True,True,True,No,1,No,No,No,No,2020_Jul_11_1137,nibs_stage_1,3.2.3,59.92975838369983,
1,0,1,0,1,0,1,0,0,0,0,0,,,,,,,,,,,,,,,,,,,,,,,,,Listen to the question and speak out your answer!,1075.7476069927216,None,1075.730072212219,1077.7304039001465,Sie haben Beeren gesammelt und wilde Tiere gejagt.,gejagt,1077.1136640071868,1080.3638589382172,1080.7804409027099,None,1092.314504957199,None,1093.7144589424133,1094.7479391098022,./data/Subject_04/Session_01/Exp_data/2020_Jul_11_1137/rec_QA_run_01_block_001_trial_000.wav,04,01,Norwegian,B1,True,False,True,False,False,True,True,True,True,True,True,True,No,1,No,No,No,No,2020_Jul_11_1137,nibs_stage_1,3.2.3,59.92975838369983,
1,0,1,0,1,0,1,0,1,0,1,0,,,,,,,,,,,,,,,,,,,,,,,,,Listen to the question and speak out your answer!,1096.8152589797974,None,1096.7979782104492,1098.8147449493408,"Nachdem mein erster Versuch gescheitert war, probierte ich es noch einmal.",probierte,1098.1981380939483,1102.314994096756,1102.6983469486236,1103.7149949073792,1113.3989089488982,None,1114.8156039714813,None,./data/Subject_04/Session_01/Exp_data/2020_Jul_11_1137/rec_QA_run_01_block_001_trial_001.wav,04,01,Norwegian,B1,True,False,True,False,False,True,True,True,True,True,True,True,No,1,No,No,No,No,2020_Jul_11_1137,nibs_stage_1,3.2.3,59.92975838369983,
1,0,1,0,1,0,1,0,2,0,2,0,,,,,,,,,,,,,,,,,,,,,,,,,Listen to the question and speak out your answer!,1117.8658039569855,None,1117.8489920616148,1119.865844964981,"Der Aufzug ist repariert, jetzt funktioniert er wieder.",repariert,1119.2491479873656,1122.6993660926819,1123.0826550483703,None,1134.4499410152434,None,1135.8667149543762,None,./data/Subject_04/Session_01/Exp_data/2020_Jul_11_1137/rec_QA_run_01_block_001_trial_002.wav,04,01,Norwegian,B1,True,False,True,False,False,True,True,True,True,True,True,True,No,1,No,No,No,No,2020_Jul_11_1137,nibs_stage_1,3.2.3,59.92975838369983,
1,0,1,0,1,0,1,0,3,0,3,0,,,,,,,,,,,,,,,,,,,,,,,,,Listen to the question and speak out your answer!,1138.9171299934387,None,1138.9001972198485,1140.9169371128082,Mein Hund hat ein paar Tricks gelernt. ,gelernt,1140.3002251148223,None,1142.7672530174254,None,1155.5010388851165,1156.5177490711212,1156.9177660942078,None,./data/Subject_04/Session_01/Exp_data/2020_Jul_11_1137/rec_QA_run_01_block_001_trial_003.wav,04,01,Norwegian,B1,True,False,True,False,False,True,True,True,True,True,True,True,No,1,No,No,No,No,2020_Jul_11_1137,nibs_stage_1,3.2.3,59.92975838369983,
1,0,1,0,1,0,1,0,4,0,4,0,,,,,,,,,,,,,,,,,,,,,,,,,Listen to the question and speak out your answer!,1159.968337059021,None,1159.9512011528013,1161.9680259227753,Die Lampe hängt über dem Bett.,hängt,1161.3513360977172,None,1163.5847900867461,None,1176.5354569911956,None,1177.9521920681,None,./data/Subject_04/Session_01/Exp_data/2020_Jul_11_1137/rec_QA_run_01_block_001_trial_004.wav,04,01,Norwegian,B1,True,False,True,False,False,True,True,True,True,True,True,True,No,1,No,No,No,No,2020_Jul_11_1137,nibs_stage_1,3.2.3,59.92975838369983,
1,0,1,0,1,0,1,0,5,0,5,0,,,,,,,,,,,,,,,,,,,,,,,,,Listen to the question and speak out your answer!,1181.0189940929413,None,1180.9856101989744,1183.0191280841827,Grossbritannien hat die EU verlassen.,verlassen,1182.4025629520415,1184.8528740406036,1185.2359169483184,None,1197.6031321048736,None,1199.0200099945068,None,./data/Subject_04/Session_01/Exp_data/2020_Jul_11_1137/rec_QA_run_01_block_001_trial_005.wav,04,01,Norwegian,B1,True,False,True,False,False,True,True,True,True,True,True,True,No,1,No,No,No,No,2020_Jul_11_1137,nibs_stage_1,3.2.3,59.92975838369983,
1,0,1,0,1,0,1,0,6,0,6,0,,,,,,,,,,,,,,,,,,,,,,,,,Listen to the question and speak out your answer!,1202.0534720420837,None,1202.0200662136076,1204.0535509586334,Der Amazon Kurier hat das Paket geliefert.,geliefert,1203.436853981018,None,1206.6369889736175,None,1218.637652015686,None,1220.0543999671936,None,./data/Subject_04/Session_01/Exp_data/2020_Jul_11_1137/rec_QA_run_01_block_001_trial_006.wav,04,01,Norwegian,B1,True,False,True,False,False,True,True,True,True,True,True,True,No,1,No,No,No,No,2020_Jul_11_1137,nibs_stage_1,3.2.3,59.92975838369983,
1,0,1,0,1,0,1,0,7,0,7,0,,,,,,,,,,,,,,,,,,,,,,,,,Listen to the question and speak out your answer!,1223.0718669891357,None,1223.0545811176298,1225.071366071701,"Das Thema interessierte sie, daher hörte sie genau zu.",interessierte,1224.4546080589294,None,1228.5215040206908,None,1239.6555019378661,None,1241.0721719264984,None,./data/Subject_04/Session_01/Exp_data/2020_Jul_11_1137/rec_QA_run_01_block_001_trial_007.wav,04,01,Norwegian,B1,True,False,True,False,False,True,True,True,True,True,True,True,No,1,No,No,No,No,2020_Jul_11_1137,nibs_stage_1,3.2.3,59.92975838369983,
1,0,1,0,1,0,1,0,8,0,8,0,,,,,,,,,,,,,,,,,,,,,,,,,Listen to the question and speak out your answer!,1244.1227629184723,None,1244.1055681228636,1246.1223349571228,Ich bin krank und bleibe heute im Bett.,bleibe,1245.5058079719543,None,1248.3058610916137,None,1260.7065080165862,1261.7231431007385,1262.1232600212097,None,./data/Subject_04/Session_01/Exp_data/2020_Jul_11_1137/rec_QA_run_01_block_001_trial_008.wav,04,01,Norwegian,B1,True,False,True,False,False,True,True,True,True,True,True,True,No,1,No,No,No,No,2020_Jul_11_1137,nibs_stage_1,3.2.3,59.92975838369983,
1,0,1,0,1,0,1,0,9,0,9,0,,,,,,,,,,,,,,,,,,,,,,,,,Listen to the question and speak out your answer!,1265.1915979385376,None,1265.1733780384063,1267.190439939499,Ihr fehlt es an ausreichender Berufserfahrung für diese Position.,fehlt,1266.5401450157165,1270.5904059410095,1270.9736250400542,None,1281.7410319805144,None,1283.1577200889587,None,./data/Subject_04/Session_01/Exp_data/2020_Jul_11_1137/rec_QA_run_01_block_001_trial_009.wav,04,01,Norwegian,B1,True,False,True,False,False,True,True,True,True,True,True,True,No,1,No,No,No,No,2020_Jul_11_1137,nibs_stage_1,3.2.3,59.92975838369983,
1,0,1,0,1,0,1,0,10,0,10,0,,,,,,,,,,,,,,,,,,,,,,,,,Listen to the question and speak out your answer!,1286.2093710899353,None,1286.1911010265349,1288.207946062088,Das Abkommen läuft noch fünf Monate. ,läuft,1287.591238117218,1290.108076095581,1290.491289949417,1291.5083301067352,1302.7920719146728,None,1304.2088150978088,None,./data/Subject_04/Session_01/Exp_data/2020_Jul_11_1137/rec_QA_run_01_block_001_trial_010.wav,04,01,Norwegian,B1,True,False,True,False,False,True,True,True,True,True,True,True,No,1,No,No,No,No,2020_Jul_11_1137,nibs_stage_1,3.2.3,59.92975838369983,
1,0,1,0,1,0,1,0,11,0,11,0,,,,,,,,,,,,,,,,,,,,,,,,,Listen to the question and speak out your answer!,1307.2757151126862,None,1307.2588890075683,1309.2758140563965,"Die Augen meines Sohnes glänzten, als er das Geschenk sah.",sah,1308.65899810791,None,1312.5259450435638,None,1323.859799003601,None,1325.2765300273895,None,./data/Subject_04/Session_01/Exp_data/2020_Jul_11_1137/rec_QA_run_01_block_001_trial_011.wav,04,01,Norwegian,B1,True,False,True,False,False,True,True,True,True,True,True,True,No,1,No,No,No,No,2020_Jul_11_1137,nibs_stage_1,3.2.3,59.92975838369983,
1,0,1,0,1,0,1,0,12,0,12,0,,,,,,,,,,,,,,,,,,,,,,,,,Listen to the question and speak out your answer!,1328.294690132141,None,1328.2765650272368,1330.2934460639954,Der Mond umkreist die Erde in ungefähr achtundzwanzig Tagen.,umkreist,1329.6767579078673,1333.4603400230408,1333.8436521053313,None,1344.8775471210479,None,1346.2942910194397,None,./data/Subject_04/Session_01/Exp_data/2020_Jul_11_1137/rec_QA_run_01_block_001_trial_012.wav,04,01,Norwegian,B1,True,False,True,False,False,True,True,True,True,True,True,True,No,1,No,No,No,No,2020_Jul_11_1137,nibs_stage_1,3.2.3,59.92975838369983,
1,0,1,0,1,0,1,0,13,0,13,0,,,,,,,,,,,,,,,,,,,,,,,,,Listen to the question and speak out your answer!,1349.3448059558868,None,1349.3278030872343,1351.3445510864258,Einige Eltern haben ihren Töchtern rosa Kleider gekauft.,gekauft,1350.7278619766234,None,1354.6614891052245,1355.6780989170074,1365.9286650180816,1366.9453840255737,1367.3454730510712,None,./data/Subject_04/Session_01/Exp_data/2020_Jul_11_1137/rec_QA_run_01_block_001_trial_013.wav,04,01,Norwegian,B1,True,False,True,False,False,True,True,True,True,True,True,True,No,1,No,No,No,No,2020_Jul_11_1137,nibs_stage_1,3.2.3,59.92975838369983,
1,0,1,0,1,0,1,0,14,0,14,0,,,,,,,,,,,,,,,,,,,,,,,,,Listen to the question and speak out your answer!,1370.3461470603943,None,1370.3288250923156,1372.3456399440765,"Der Arzt sagt, mein Knie ist in Ordnung, aber meine Beine scheinen gebrochen zu sein.",scheinen,1371.7289889812469,1377.0125291347504,1377.3959129810332,None,1386.930048084259,1387.946545124054,1388.346487045288,None,./data/Subject_04/Session_01/Exp_data/2020_Jul_11_1137/rec_QA_run_01_block_001_trial_014.wav,04,01,Norwegian,B1,True,False,True,False,False,True,True,True,True,True,True,True,No,1,No,No,No,No,2020_Jul_11_1137,nibs_stage_1,3.2.3,59.92975838369983,
1,0,1,0,1,0,1,0,15,0,15,0,,,,,,,,,,,,,,,,,,,,,,,,,Listen to the question and speak out your answer!,1391.4134171009064,None,1391.379881095886,1393.4134850502014,Der Dieb wurde für sein Verbrechen bestraft.,bestraft,1392.763377046585,None,1395.7302659511565,None,1407.9641231060027,1408.9808909893036,1409.3809130191803,None,./data/Subject_04/Session_01/Exp_data/2020_Jul_11_1137/rec_QA_run_01_block_001_trial_015.wav,04,01,Norwegian,B1,True,False,True,False,False,True,True,True,True,True,True,True,No,1,No,No,No,No,2020_Jul_11_1137,nibs_stage_1,3.2.3,59.92975838369983,
1,0,1,0,1,0,1,0,16,0,16,0,,,,,,,,,,,,,,,,,,,,,,,,,Listen to the question and speak out your answer!,1412.432953119278,None,1412.4142481803892,1414.431263923645,Arbeitslos-sein bedeutet: man hat keinen Arbeits-Platz.,bedeutet,1413.8144660949706,None,1417.5813339710235,None,1428.9819229602813,None,1430.3987050056458,None,./data/Subject_04/Session_01/Exp_data/2020_Jul_11_1137/rec_QA_run_01_block_001_trial_016.wav,04,01,Norwegian,B1,True,False,True,False,False,True,True,True,True,True,True,True,No,1,No,No,No,No,2020_Jul_11_1137,nibs_stage_1,3.2.3,59.92975838369983,
1,0,1,0,1,0,1,0,17,0,17,0,,,,,,,,,,,,,,,,,,,,,,,,,Listen to the question and speak out your answer!,1433.4656031131744,None,1433.4321741580961,1435.4656920433044,Sie hat das Gemüse in Olivenöl gebraten.,gebraten,1434.8155439853667,None,1438.0157199859618,None,1450.016340112686,None,1451.4330079555511,None,./data/Subject_04/Session_01/Exp_data/2020_Jul_11_1137/rec_QA_run_01_block_001_trial_017.wav,04,01,Norwegian,B1,True,False,True,False,False,True,True,True,True,True,True,True,No,1,No,No,No,No,2020_Jul_11_1137,nibs_stage_1,3.2.3,59.92975838369983,
1,0,1,0,1,0,1,0,18,0,18,0,,,,,,,,,,,,,,,,,,,,,,,,,Listen to the question and speak out your answer!,1454.483911037445,None,1454.4498661518096,1456.4834060668945,In diesem Krankenhaus werden viele Patienten behandelt.,behandelt,1455.8333290576934,None,1459.7001799106597,1460.7169070243835,1471.0341130256652,None,1472.4508531093597,None,./data/Subject_04/Session_01/Exp_data/2020_Jul_11_1137/rec_QA_run_01_block_001_trial_018.wav,04,01,Norwegian,B1,True,False,True,False,False,True,True,True,True,True,True,True,No,1,No,No,No,No,2020_Jul_11_1137,nibs_stage_1,3.2.3,59.92975838369983,
1,0,1,0,1,0,1,0,19,0,19,0,,,,,,,,,,,,,,,,,,,,,,,,,Listen to the question and speak out your answer!,1475.5024831295013,None,1475.4842731475828,1477.5011439323425,Er hat Kartoffeln mit der Schale gekocht.,gekocht,1476.8844140529632,1479.3013169765472,1479.684562063217,1480.701287984848,1492.0852011203765,None,1493.5019381046295,None,./data/Subject_04/Session_01/Exp_data/2020_Jul_11_1137/rec_QA_run_01_block_001_trial_019.wav,04,01,Norwegian,B1,True,False,True,False,False,True,True,True,True,True,True,True,No,1,No,No,No,No,2020_Jul_11_1137,nibs_stage_1,3.2.3,59.92975838369983,
1,0,1,0,1,0,1,0,20,0,20,0,,,,,,,,,,,,,,,,,,,,,,,,,Listen to the question and speak out your answer!,1496.5697569847107,None,1496.5353540897368,1498.5689430236816,Ist der Tisch schon gedeckt?,gedeckt,1497.9188369274138,1499.4689619541168,1499.8855970859527,1500.9023280143738,1513.1196230411529,1514.136379957199,1514.5364401340485,None,./data/Subject_04/Session_01/Exp_data/2020_Jul_11_1137/rec_QA_run_01_block_001_trial_020.wav,04,01,Norwegian,B1,True,False,True,False,False,True,True,True,True,True,True,True,No,1,No,No,No,No,2020_Jul_11_1137,nibs_stage_1,3.2.3,59.92975838369983,
1,0,1,0,1,0,1,0,21,0,21,0,,,,,,,,,,,,,,,,,,,,,,,,,Listen to the question and speak out your answer!,1517.5868229866028,None,1517.5697190284727,1519.5866270065308,Manche Menschen kann mehr Fleisch als Gemüse essen.,essen,1518.9699159622191,None,1522.370101070404,None,1534.1709800720214,1535.1874179840088,1535.5874419212341,None,./data/Subject_04/Session_01/Exp_data/2020_Jul_11_1137/rec_QA_run_01_block_001_trial_021.wav,04,01,Norwegian,B1,True,False,True,False,False,True,True,True,True,True,True,True,No,1,No,No,No,No,2020_Jul_11_1137,nibs_stage_1,3.2.3,59.92975838369983,
1,0,1,0,1,0,1,0,22,0,22,0,,,,,,,,,,,,,,,,,,,,,,,,,Listen to the question and speak out your answer!,1538.6392340660095,None,1538.6209320545195,1540.6377110481262,Ich male sehr gerne Ölbilder.,male,1540.021019077301,None,1542.487850999832,None,1555.2218540668487,None,1556.6385049819946,None,./data/Subject_04/Session_01/Exp_data/2020_Jul_11_1137/rec_QA_run_01_block_001_trial_022.wav,04,01,Norwegian,B1,True,False,True,False,False,True,True,True,True,True,True,True,No,1,No,No,No,No,2020_Jul_11_1137,nibs_stage_1,3.2.3,59.92975838369983,
1,0,1,0,1,0,1,0,23,0,23,0,,,,,,,,,,,,,,,,,,,,,,,,,Listen to the question and speak out your answer!,1559.6891341209412,None,1559.672004175186,1561.6888029575348,Das Auto wurde in Deutschland hergestellt.,hergestellt,1561.0721949100493,None,1564.0056029319762,None,1576.272910928726,None,1577.6896450519562,None,./data/Subject_04/Session_01/Exp_data/2020_Jul_11_1137/rec_QA_run_01_block_001_trial_023.wav,04,01,Norwegian,B1,True,False,True,False,False,True,True,True,True,True,True,True,No,1,No,No,No,No,2020_Jul_11_1137,nibs_stage_1,3.2.3,59.92975838369983,
1,0,1,0,1,0,1,0,24,0,24,0,,,,,,,,,,,,,,,,,,,,,,,,,Listen to the question and speak out your answer!,1580.756690979004,None,1580.722980213165,1582.7565639019012,"Die Geheimzahl sollte nicht notiert werden, vor allem nicht auf der Bankomatkarte.",notiert,1582.1399720668792,1586.9901130199432,1587.3734549045562,None,1597.340669965744,None,1598.7574670314789,None,./data/Subject_04/Session_01/Exp_data/2020_Jul_11_1137/rec_QA_run_01_block_001_trial_024.wav,04,01,Norwegian,B1,True,False,True,False,False,True,True,True,True,True,True,True,No,1,No,No,No,No,2020_Jul_11_1137,nibs_stage_1,3.2.3,59.92975838369983,
