run.thisRepN,run.thisTrialN,run.thisN,run.thisIndex,QA_block.thisRepN,QA_block.thisTrialN,QA_block.thisN,QA_block.thisIndex,QA_trial.thisRepN,QA_trial.thisTrialN,QA_trial.thisN,QA_trial.thisIndex,fade_in_text.text,fade_in_text.started,fade_in_text.stopped,RS_intro_title.started,RS_intro_title.stopped,RS_intro_text.text,RS_intro_text.started,RS_intro_text.stopped,RS_intro_audio.started,RS_intro_audio.stopped,RS_rec_text.text,RS_rec_text.started,RS_rec_text.stopped,Pause_cont.started,Pause_cont.stopped,QA_intro_title.started,QA_intro_title.stopped,QA_intro_text.text,QA_intro_text.started,QA_intro_text.stopped,QA_intro_audio.started,QA_intro_audio.stopped,QA_intro_cont.started,QA_intro_cont.stopped,QA_rec_text.text,QA_rec_text.started,QA_rec_text.stopped,QA_rec_beep_hint.started,QA_rec_beep_hint.stopped,QA_rec_question.sen_text,QA_rec_question.cen_text,QA_rec_question.started,QA_rec_question.stopped,QA_rec_beep_start.started,QA_rec_beep_start.stopped,QA_rec_beep_end.started,QA_rec_beep_end.stopped,QA_rec_break.started,QA_rec_break.stopped,filename,participant,session,First language,German level,Full_screen,Instruction,Intro,Artifact,Cali_pre,Fade_in_out,Artifact_within,Resting_State,QA,Pause,Cali_post,End,Breakpoint_Cali_pre_trial,Breakpoint_Run,Breakpoint_RS_block,Breakpoint_QA_block,Breakpoint_QA_trial,Breakpoint_Cali_post_trial,date,expName,psychopyVersion,frameRate,
0,0,0,0,0,0,0,0,0,0,0,0,Please remain seated until further instruction via the earphone.,60.48719000816345,None,269.94747495651245,None," - Task: Keep seated and relaxed with either      
             opening or closing eyes                  
 - Beep sound with decreasing pitch: Block finish 
",269.94747495651245,None,269.93002183437346,None,"Please keep relaxed and close your eyes.
",292.9819588661194,472.9914939403534,476.3413259983063,None,490.45867800712585,None," - Task: Listen to the question& Speak out answer 
 - Melodious beep sound: Trial start              
 - Silent sound (blank): censored word            
 - Beep sound with increasing pitch: Rec. start   
 - Beep sound with decreasing pitch: Rec. finish  
",490.45867800712585,None,490.440234208107,None,529.8436989784241,None,Listen to the question and speak out your answer!,532.9105269908905,None,532.8923478841781,534.8941538333893,An der Tankstelle kann man Benzin in den Tank füllen.,füllen,534.2939253091812,537.2940230369568,537.694113278389,None,549.4948692560196,550.4948718547821,550.8950090408325,551.8950068950653,./data/Subject_04/Session_01/Exp_data/2020_Jul_11_1109/rec_QA_run_00_block_000_trial_000.wav,04,01,Norwegian,B1,True,False,True,False,False,True,True,True,True,True,True,True,No,No,No,No,No,No,2020_Jul_11_1109,nibs_stage_1,3.2.3,59.92864521641474,
0,0,0,0,0,0,0,0,1,0,1,0,,,,,,,,,,,,,,,,,,,,,,,,,Listen to the question and speak out your answer!,553.9631018638611,None,553.9440987825393,555.9452359676361,"Mein Handy ist schon eingeschaltet, so dass Sie mich jederzeit anrufen können.",anrufen,555.32851126194,None,560.3120560884475,None,570.5292821168899,None,571.9293599128723,572.9294209480286,./data/Subject_04/Session_01/Exp_data/2020_Jul_11_1109/rec_QA_run_00_block_000_trial_001.wav,04,01,Norwegian,B1,True,False,True,False,False,True,True,True,True,True,True,True,No,No,No,No,No,No,2020_Jul_11_1109,nibs_stage_1,3.2.3,59.92864521641474,
0,0,0,0,0,0,0,0,2,0,2,0,,,,,,,,,,,,,,,,,,,,,,,,,Listen to the question and speak out your answer!,575.0126869678497,None,574.99516685009,577.0128259658813,Diese beiden Handschuhe gehören zusammen.,gehören,576.362941288948,578.9297158718109,579.3464291334152,None,591.5638342142105,592.5637228488922,592.9637830257416,593.9637849330902,./data/Subject_04/Session_01/Exp_data/2020_Jul_11_1109/rec_QA_run_00_block_000_trial_002.wav,04,01,Norwegian,B1,True,False,True,False,False,True,True,True,True,True,True,True,No,No,No,No,No,No,2020_Jul_11_1109,nibs_stage_1,3.2.3,59.92864521641474,
0,0,0,0,0,0,0,0,3,0,3,0,,,,,,,,,,,,,,,,,,,,,,,,,Listen to the question and speak out your answer!,596.0306169986725,None,596.0128856182098,598.0142040252686,"Da hier nur sehr wenige Parkplätze sind, nur Anwohner dürfen in dieser Straße parken.",parken,597.3972811937332,602.5476138591766,602.9642811059952,None,612.5980792284012,None,614.0146849155426,615.0148539543152,./data/Subject_04/Session_01/Exp_data/2020_Jul_11_1109/rec_QA_run_00_block_000_trial_003.wav,04,01,Norwegian,B1,True,False,True,False,False,True,True,True,True,True,True,True,No,No,No,No,No,No,2020_Jul_11_1109,nibs_stage_1,3.2.3,59.92864521641474,
0,0,0,0,0,0,0,0,4,0,4,0,,,,,,,,,,,,,,,,,,,,,,,,,Listen to the question and speak out your answer!,617.0816428661346,None,617.0639458417892,619.0650508403778,Blut fließt aus einer Wunde.,fließt,618.448354268074,620.2651288509369,620.6650312185287,621.6653008460999,633.6491482496261,None,635.0492069721222,636.0492329597473,./data/Subject_04/Session_01/Exp_data/2020_Jul_11_1109/rec_QA_run_00_block_000_trial_004.wav,04,01,Norwegian,B1,True,False,True,False,False,True,True,True,True,True,True,True,No,No,No,No,No,No,2020_Jul_11_1109,nibs_stage_1,3.2.3,59.92864521641474,
0,0,0,0,0,0,0,0,5,0,5,0,,,,,,,,,,,,,,,,,,,,,,,,,Listen to the question and speak out your answer!,638.1163170337677,None,638.0983305454254,640.0996060371399,Der Bau des Gebäudes hat 3 Jahre gedauert und ist endlich fast abgeschlossen.,abgeschlossen,639.4827273130417,644.0996329784393,644.4996421575546,None,654.6837101221084,None,656.1167728900909,None,./data/Subject_04/Session_01/Exp_data/2020_Jul_11_1109/rec_QA_run_00_block_000_trial_005.wav,04,01,Norwegian,B1,True,False,True,False,False,True,True,True,True,True,True,True,No,No,No,No,No,No,2020_Jul_11_1109,nibs_stage_1,3.2.3,59.92864521641474,
0,0,0,0,0,0,0,0,6,0,6,0,,,,,,,,,,,,,,,,,,,,,,,,,Listen to the question and speak out your answer!,659.1675579547882,None,659.1494158029556,661.1504158973694,"Ich habe den Knopf gedrückt, um die Kaffeemaschine einzuschalten.",gedrückt,660.5337801218033,None,664.6839211225509,665.684093952179,675.7345671892166,None,677.1346538066864,678.1347069740295,./data/Subject_04/Session_01/Exp_data/2020_Jul_11_1109/rec_QA_run_00_block_000_trial_006.wav,04,01,Norwegian,B1,True,False,True,False,False,True,True,True,True,True,True,True,No,No,No,No,No,No,2020_Jul_11_1109,nibs_stage_1,3.2.3,59.92864521641474,
0,0,0,0,0,0,0,0,7,0,7,0,,,,,,,,,,,,,,,,,,,,,,,,,Listen to the question and speak out your answer!,680.2182309627533,None,680.2004647970199,682.2013459205627,Der Mitarbeiter wurde für seinen Fleiß und seine harte Arbeit belohnt.,belohnt,681.5848591566086,685.6181960105896,686.0181172132492,687.0184760093689,696.7854492902756,None,698.1855449676514,699.185585975647,./data/Subject_04/Session_01/Exp_data/2020_Jul_11_1109/rec_QA_run_00_block_000_trial_007.wav,04,01,Norwegian,B1,True,False,True,False,False,True,True,True,True,True,True,True,No,No,No,No,No,No,2020_Jul_11_1109,nibs_stage_1,3.2.3,59.92864521641474,
0,0,0,0,0,0,0,0,8,0,8,0,,,,,,,,,,,,,,,,,,,,,,,,,Listen to the question and speak out your answer!,701.2696568965912,None,701.2513807535171,703.2524189949036,"Pinguine bewohnen die Antarktis, wie auch Robben und große Seelöwen.",bewohnen,702.6356642484665,None,707.6359591722488,None,717.8364451169967,None,719.2365348339081,720.2366139888763,./data/Subject_04/Session_01/Exp_data/2020_Jul_11_1109/rec_QA_run_00_block_000_trial_008.wav,04,01,Norwegian,B1,True,False,True,False,False,True,True,True,True,True,True,True,No,No,No,No,No,No,2020_Jul_11_1109,nibs_stage_1,3.2.3,59.92864521641474,
0,0,0,0,0,0,0,0,9,0,9,0,,,,,,,,,,,,,,,,,,,,,,,,,Listen to the question and speak out your answer!,722.2866928577423,None,722.2690465927124,724.2701029777527,Ich muss mein Versprechen halten.,halten,723.6701271772384,None,726.0035522222519,None,738.8709182977676,None,740.2710139751434,741.2711598873138,./data/Subject_04/Session_01/Exp_data/2020_Jul_11_1109/rec_QA_run_00_block_000_trial_009.wav,04,01,Norwegian,B1,True,False,True,False,False,True,True,True,True,True,True,True,No,No,No,No,No,No,2020_Jul_11_1109,nibs_stage_1,3.2.3,59.92864521641474,
0,0,0,0,0,0,0,0,10,0,10,0,,,,,,,,,,,,,,,,,,,,,,,,,Listen to the question and speak out your answer!,743.3211100101471,None,743.3035924911499,745.3045718669891,Neue Sterne entstehen in den Magellan-Wolken.,entstehen,744.6878543138504,None,747.9713621377945,748.9713609218597,759.8886273145675,None,761.2885890007019,762.2887380123138,./data/Subject_04/Session_01/Exp_data/2020_Jul_11_1109/rec_QA_run_00_block_000_trial_010.wav,04,01,Norwegian,B1,True,False,True,False,False,True,True,True,True,True,True,True,No,No,No,No,No,No,2020_Jul_11_1109,nibs_stage_1,3.2.3,59.92864521641474,
0,0,0,0,0,0,0,0,11,0,11,0,,,,,,,,,,,,,,,,,,,,,,,,,Listen to the question and speak out your answer!,764.3722269535065,None,764.3378575325012,766.3389058113098,"Lebensmittel sind die Dinge, die man essen kann.",essen,765.7387981653213,768.6059939861298,769.0226803064346,None,780.9398381948471,None,782.3398869037628,None,./data/Subject_04/Session_01/Exp_data/2020_Jul_11_1109/rec_QA_run_00_block_000_trial_011.wav,04,01,Norwegian,B1,True,False,True,False,False,True,True,True,True,True,True,True,No,No,No,No,No,No,2020_Jul_11_1109,nibs_stage_1,3.2.3,59.92864521641474,
0,0,0,0,0,0,0,0,12,0,12,0,,,,,,,,,,,,,,,,,,,,,,,,,Listen to the question and speak out your answer!,785.4072279930115,None,785.3888498067855,787.4066338539124,Sie beantwortete meine E-Mail schnell.,beantwortete,786.789964222908,789.2400560379028,789.5900731325149,None,801.9907422304153,None,803.4073379039764,None,./data/Subject_04/Session_01/Exp_data/2020_Jul_11_1109/rec_QA_run_00_block_000_trial_012.wav,04,01,Norwegian,B1,True,False,True,False,False,True,True,True,True,True,True,True,No,No,No,No,No,No,2020_Jul_11_1109,nibs_stage_1,3.2.3,59.92864521641474,
0,0,0,0,0,0,0,0,13,0,13,0,,,,,,,,,,,,,,,,,,,,,,,,,Listen to the question and speak out your answer!,806.4910218715668,None,806.4565768957137,808.4910318851471,"Ich habe dieses Fach als mein Hauptfach gewählt, weil es mich interessiert.",interessiert,807.8410301446914,None,812.5078921556473,None,823.0417762041092,None,824.4585089683533,None,./data/Subject_04/Session_01/Exp_data/2020_Jul_11_1109/rec_QA_run_00_block_000_trial_013.wav,04,01,Norwegian,B1,True,False,True,False,False,True,True,True,True,True,True,True,No,No,No,No,No,No,2020_Jul_11_1109,nibs_stage_1,3.2.3,59.92864521641474,
0,0,0,0,0,0,0,0,14,0,14,0,,,,,,,,,,,,,,,,,,,,,,,,,Listen to the question and speak out your answer!,827.5254638195038,None,827.4910355091095,829.5254528522491,Herr Becker hat den Zug nach Deutschland genommen.,genommen,828.9087252855301,None,831.908877158165,None,844.1095061540603,None,845.5262780189514,None,./data/Subject_04/Session_01/Exp_data/2020_Jul_11_1109/rec_QA_run_00_block_000_trial_014.wav,04,01,Norwegian,B1,True,False,True,False,False,True,True,True,True,True,True,True,No,No,No,No,No,No,2020_Jul_11_1109,nibs_stage_1,3.2.3,59.92864521641474,
0,0,0,0,0,0,0,0,15,0,15,0,,,,,,,,,,,,,,,,,,,,,,,,,Listen to the question and speak out your answer!,848.561224937439,None,848.5421128988265,850.5598409175873,Sie brauchen ein ärztliches Zeugnis.,brauchen,849.9098022222519,None,852.7432711362839,None,865.1107101678848,866.127279996872,866.5273180007935,None,./data/Subject_04/Session_01/Exp_data/2020_Jul_11_1109/rec_QA_run_00_block_000_trial_015.wav,04,01,Norwegian,B1,True,False,True,False,False,True,True,True,True,True,True,True,No,No,No,No,No,No,2020_Jul_11_1109,nibs_stage_1,3.2.3,59.92864521641474,
0,0,0,0,0,0,0,0,16,0,16,0,,,,,,,,,,,,,,,,,,,,,,,,,Listen to the question and speak out your answer!,869.6114490032196,None,869.5764408826827,871.6109018325806,"Die Produkte, die ich bestellt hatte, kamen drei Tage später an.",kamen,870.9611470937729,875.1110470294952,875.4944961309433,None,886.1616111040115,None,887.5783739089966,None,./data/Subject_04/Session_01/Exp_data/2020_Jul_11_1109/rec_QA_run_00_block_000_trial_016.wav,04,01,Norwegian,B1,True,False,True,False,False,True,True,True,True,True,True,True,No,No,No,No,No,No,2020_Jul_11_1109,nibs_stage_1,3.2.3,59.92864521641474,
0,0,0,0,0,0,0,0,17,0,17,0,,,,,,,,,,,,,,,,,,,,,,,,,Listen to the question and speak out your answer!,890.6467328071594,None,890.6275149106979,892.6453218460083,Ich fühle die warme Sonne auf meiner Haut.,fühle,891.9952492952347,894.5120580196381,894.9287302732467,895.9454720020294,907.1960492372513,908.2126889228821,908.6127760410309,None,./data/Subject_04/Session_01/Exp_data/2020_Jul_11_1109/rec_QA_run_00_block_000_trial_017.wav,04,01,Norwegian,B1,True,False,True,False,False,True,True,True,True,True,True,True,No,No,No,No,No,No,2020_Jul_11_1109,nibs_stage_1,3.2.3,59.92864521641474,
0,0,0,0,0,0,0,0,18,0,18,0,,,,,,,,,,,,,,,,,,,,,,,,,Listen to the question and speak out your answer!,911.6796028614044,None,911.6452355861663,913.6796839237213,Alexander Bell hat das Telefon erfunden.,erfunden,913.0296371221542,915.7467370033264,916.1631431818008,917.1798648834229,928.2304911851883,None,929.6471869945526,None,./data/Subject_04/Session_01/Exp_data/2020_Jul_11_1109/rec_QA_run_00_block_000_trial_018.wav,04,01,Norwegian,B1,True,False,True,False,False,True,True,True,True,True,True,True,No,No,No,No,No,No,2020_Jul_11_1109,nibs_stage_1,3.2.3,59.92864521641474,
0,0,0,0,0,0,0,0,19,0,19,0,,,,,,,,,,,,,,,,,,,,,,,,,Listen to the question and speak out your answer!,932.7146248817444,None,932.6796484470367,934.7140798568726,Die Mieter wollen die Vertragsbedingungen ändern.,ändern,934.0973761320114,936.8144128322601,937.1975302934646,None,949.2981772661209,None,950.7149138450623,None,./data/Subject_04/Session_01/Exp_data/2020_Jul_11_1109/rec_QA_run_00_block_000_trial_019.wav,04,01,Norwegian,B1,True,False,True,False,False,True,True,True,True,True,True,True,No,No,No,No,No,No,2020_Jul_11_1109,nibs_stage_1,3.2.3,59.92864521641474,
0,0,0,0,0,0,0,0,20,0,20,0,,,,,,,,,,,,,,,,,,,,,,,,,Listen to the question and speak out your answer!,953.8498539924622,None,953.830695605278,955.8485398292542,Man bezahlt für den Naturschutz.,bezahlt,955.2320652246475,None,957.6988151311874,958.7152960300446,970.4159171819687,971.4326508045197,971.8326418399811,None,./data/Subject_04/Session_01/Exp_data/2020_Jul_11_1109/rec_QA_run_00_block_000_trial_020.wav,04,01,Norwegian,B1,True,False,True,False,False,True,True,True,True,True,True,True,No,No,No,No,No,No,2020_Jul_11_1109,nibs_stage_1,3.2.3,59.92864521641474,
0,0,0,0,0,0,0,0,21,0,21,0,,,,,,,,,,,,,,,,,,,,,,,,,Listen to the question and speak out your answer!,974.9167778491974,None,974.8818188428878,976.9162278175354,Die Studenten müssen sich für den Kurs anmelden.,anmelden,976.2661891222,None,979.46633913517,None,991.4669261217117,None,992.8836998939514,None,./data/Subject_04/Session_01/Exp_data/2020_Jul_11_1109/rec_QA_run_00_block_000_trial_021.wav,04,01,Norwegian,B1,True,False,True,False,False,True,True,True,True,True,True,True,No,No,No,No,No,No,2020_Jul_11_1109,nibs_stage_1,3.2.3,59.92864521641474,
0,0,0,0,0,0,0,0,22,0,22,0,,,,,,,,,,,,,,,,,,,,,,,,,Listen to the question and speak out your answer!,995.9508588314056,None,995.9328568696975,997.950621843338,Der Arbeiter repariert eine Panne.,repariert,997.3339402914047,999.6507189273834,1000.0341460943222,1001.0507848262787,1012.5346682310104,None,1013.9514520168304,None,./data/Subject_04/Session_01/Exp_data/2020_Jul_11_1109/rec_QA_run_00_block_000_trial_022.wav,04,01,Norwegian,B1,True,False,True,False,False,True,True,True,True,True,True,True,No,No,No,No,No,No,2020_Jul_11_1109,nibs_stage_1,3.2.3,59.92864521641474,
0,0,0,0,0,0,0,0,23,0,23,0,,,,,,,,,,,,,,,,,,,,,,,,,Listen to the question and speak out your answer!,1016.9861869812012,None,1016.9672377824783,1018.9850330352783,Während meines Urlaubs werde ich nach China und Japan reisen.,reisen,1018.3683071374893,1022.1518850326538,1022.5018611192703,None,1033.569095158577,1034.5858309268951,1034.9858379364014,None,./data/Subject_04/Session_01/Exp_data/2020_Jul_11_1109/rec_QA_run_00_block_000_trial_023.wav,04,01,Norwegian,B1,True,False,True,False,False,True,True,True,True,True,True,True,No,No,No,No,No,No,2020_Jul_11_1109,nibs_stage_1,3.2.3,59.92864521641474,
0,0,0,0,0,0,0,0,24,0,24,0,,,,,,,,,,,,,,,,,,,,,,,,,Listen to the question and speak out your answer!,1038.0210728645325,None,1038.0016477823258,1040.0194199085236,"Keine Sorge, ich werde mich um Ihr Kind kümmern.",kümmern,1039.4027042627336,1042.2529740333557,1042.6362262010575,None,1054.603490138054,None,1056.020231962204,None,./data/Subject_04/Session_01/Exp_data/2020_Jul_11_1109/rec_QA_run_00_block_000_trial_024.wav,04,01,Norwegian,B1,True,False,True,False,False,True,True,True,True,True,True,True,No,No,No,No,No,No,2020_Jul_11_1109,nibs_stage_1,3.2.3,59.92864521641474,
0,0,0,0,0,0,0,0,,,,,,,,,,,,,,,,,,1060.0711300373077,None,,,,,,,,,,,,,,,,,,,,,,,,,,04,01,Norwegian,B1,True,False,True,False,False,True,True,True,True,True,True,True,No,No,No,No,No,No,2020_Jul_11_1109,nibs_stage_1,3.2.3,59.92864521641474,
0,0,0,0,1,0,1,0,0,0,0,0,,,,,,,,,,,,,,,,,,,,,,,,,Listen to the question and speak out your answer!,1076.354698896408,None,1076.319754910469,1078.354707956314,"Wir sollten in den Bus einsteigen, bevor er abfährt.",einsteigen,1077.7380061388017,1080.8214838504791,1081.2048382997514,None,1092.9387862920762,None,1094.3555419445038,None,./data/Subject_04/Session_01/Exp_data/2020_Jul_11_1109/rec_QA_run_00_block_001_trial_000.wav,04,01,Norwegian,B1,True,False,True,False,False,True,True,True,True,True,True,True,No,No,No,No,No,No,2020_Jul_11_1109,nibs_stage_1,3.2.3,59.92864521641474,
0,0,0,0,1,0,1,0,1,0,1,0,,,,,,,,,,,,,,,,,,,,,,,,,Listen to the question and speak out your answer!,1097.4057459831238,None,1097.371299815178,1099.405779838562,"Das ist zu spät, ich möchte nach Hause gehen.",gehen,1098.755725169182,1101.5391988754272,1101.9558861494065,None,1113.9564752817155,1114.973284959793,1115.373302936554,None,./data/Subject_04/Session_01/Exp_data/2020_Jul_11_1109/rec_QA_run_00_block_001_trial_001.wav,04,01,Norwegian,B1,True,False,True,False,False,True,True,True,True,True,True,True,No,No,No,No,No,No,2020_Jul_11_1109,nibs_stage_1,3.2.3,59.92864521641474,
0,0,0,0,1,0,1,0,2,0,2,0,,,,,,,,,,,,,,,,,,,,,,,,,Listen to the question and speak out your answer!,1118.440153837204,None,1118.4059045791628,1120.4401729106903,Die meisten Jugendlichen hören gerne Musik.,hören,1119.8234672784806,1122.6406178474426,1123.0236692667008,None,1135.0241561174394,1136.0411579608917,1136.4410059452057,None,./data/Subject_04/Session_01/Exp_data/2020_Jul_11_1109/rec_QA_run_00_block_001_trial_002.wav,04,01,Norwegian,B1,True,False,True,False,False,True,True,True,True,True,True,True,No,No,No,No,No,No,2020_Jul_11_1109,nibs_stage_1,3.2.3,59.92864521641474,
0,0,0,0,1,0,1,0,3,0,3,0,,,,,,,,,,,,,,,,,,,,,,,,,Listen to the question and speak out your answer!,1139.4760529994965,None,1139.4567878961564,1141.4745869636536,Morgens stehe ich um kurz vor sieben Uhr auf.,stehe,1140.8578641653062,1143.808032989502,1144.1580262422563,1145.174754858017,1156.0586412191392,None,1157.4753999710083,None,./data/Subject_04/Session_01/Exp_data/2020_Jul_11_1109/rec_QA_run_00_block_001_trial_003.wav,04,01,Norwegian,B1,True,False,True,False,False,True,True,True,True,True,True,True,No,No,No,No,No,No,2020_Jul_11_1109,nibs_stage_1,3.2.3,59.92864521641474,
0,0,0,0,1,0,1,0,4,0,4,0,,,,,,,,,,,,,,,,,,,,,,,,,Listen to the question and speak out your answer!,1160.5428788661957,None,1160.507787513733,1162.542308807373,"Er muss arbeiten, um seine beiden Kinder großzuziehen.",arbeiten,1161.9256031751634,1165.2091898918152,1165.5591221094132,1166.5758609771729,1177.1263771295548,None,1178.5431489944458,None,./data/Subject_04/Session_01/Exp_data/2020_Jul_11_1109/rec_QA_run_00_block_001_trial_004.wav,04,01,Norwegian,B1,True,False,True,False,False,True,True,True,True,True,True,True,No,No,No,No,No,No,2020_Jul_11_1109,nibs_stage_1,3.2.3,59.92864521641474,
0,0,0,0,1,0,1,0,5,0,5,0,,,,,,,,,,,,,,,,,,,,,,,,,Listen to the question and speak out your answer!,1181.5781319141388,None,1181.5589478731156,1183.576709985733,Das Lagerfeuer hat zwei Stunden lang gebrannt.,gebrannt,1182.9600031614304,None,1186.1269612550736,None,1198.1607642412187,1199.1774938106537,1199.5775799751282,None,./data/Subject_04/Session_01/Exp_data/2020_Jul_11_1109/rec_QA_run_00_block_001_trial_005.wav,04,01,Norwegian,B1,True,False,True,False,False,True,True,True,True,True,True,True,No,No,No,No,No,No,2020_Jul_11_1109,nibs_stage_1,3.2.3,59.92864521641474,
0,0,0,0,1,0,1,0,6,0,6,0,,,,,,,,,,,,,,,,,,,,,,,,,Listen to the question and speak out your answer!,1202.6113879680634,None,1202.5933357000351,1204.6111249923706,Nach der Party mussten wir das Haus aufräumen.,aufräumen,1203.9944052934648,1206.778268814087,1207.1612463235856,None,1219.19520714283,None,1220.6119558811188,None,./data/Subject_04/Session_01/Exp_data/2020_Jul_11_1109/rec_QA_run_00_block_001_trial_006.wav,04,01,Norwegian,B1,True,False,True,False,False,True,True,True,True,True,True,True,No,No,No,No,No,No,2020_Jul_11_1109,nibs_stage_1,3.2.3,59.92864521641474,
0,0,0,0,1,0,1,0,7,0,7,0,,,,,,,,,,,,,,,,,,,,,,,,,Listen to the question and speak out your answer!,1223.6470038890839,None,1223.6277278184891,1225.645534992218,"Um Omeltte zu machen, werde ich die Eier verrühren und dann braten.",braten,1225.0288851499558,None,1229.2958061933518,None,1240.2295911550523,1241.2463359832764,1241.646381855011,None,./data/Subject_04/Session_01/Exp_data/2020_Jul_11_1109/rec_QA_run_00_block_001_trial_007.wav,04,01,Norwegian,B1,True,False,True,False,False,True,True,True,True,True,True,True,No,No,No,No,No,No,2020_Jul_11_1109,nibs_stage_1,3.2.3,59.92864521641474,
0,0,0,0,1,0,1,0,8,0,8,0,,,,,,,,,,,,,,,,,,,,,,,,,Listen to the question and speak out your answer!,1244.713143825531,None,1244.6788194656374,1246.7132439613342,Wir haben einige sehr schöne Orte besucht.,besucht,1246.0965612173081,None,1249.163365149498,None,1261.2973273038865,None,1262.7140808105469,None,./data/Subject_04/Session_01/Exp_data/2020_Jul_11_1109/rec_QA_run_00_block_001_trial_008.wav,04,01,Norwegian,B1,True,False,True,False,False,True,True,True,True,True,True,True,No,No,No,No,No,No,2020_Jul_11_1109,nibs_stage_1,3.2.3,59.92864521641474,
0,0,0,0,1,0,1,0,9,0,9,0,,,,,,,,,,,,,,,,,,,,,,,,,Listen to the question and speak out your answer!,1265.7479038238525,None,1265.7298818349839,1267.7476480007172,Dieses Brot ist maschinell hergestellt worden.,hergestellt,1267.1309921979905,1269.9814109802246,1270.3647542238236,1271.3815150260925,1282.2984071016313,None,1283.7151408195496,None,./data/Subject_04/Session_01/Exp_data/2020_Jul_11_1109/rec_QA_run_00_block_001_trial_009.wav,04,01,Norwegian,B1,True,False,True,False,False,True,True,True,True,True,True,True,No,No,No,No,No,No,2020_Jul_11_1109,nibs_stage_1,3.2.3,59.92864521641474,
0,0,0,0,1,0,1,0,10,0,10,0,,,,,,,,,,,,,,,,,,,,,,,,,Listen to the question and speak out your answer!,1286.7656309604645,None,1286.7476594924929,1288.7654609680176,Der Fluss fließt an der Grenze entlang.,fließt,1288.14869120121,1290.4988160133362,1290.8821943044663,None,1303.3494792222978,None,1304.7661378383636,None,./data/Subject_04/Session_01/Exp_data/2020_Jul_11_1109/rec_QA_run_00_block_001_trial_010.wav,04,01,Norwegian,B1,True,False,True,False,False,True,True,True,True,True,True,True,No,No,No,No,No,No,2020_Jul_11_1109,nibs_stage_1,3.2.3,59.92864521641474,
0,0,0,0,1,0,1,0,11,0,11,0,,,,,,,,,,,,,,,,,,,,,,,,,Listen to the question and speak out your answer!,1307.8008708953857,None,1307.782123875618,1309.79980802536,"Meine Fenster sind schmutzig, ich muss sie putzen.",putzen,1309.1830942869187,None,1312.4165930986405,None,1324.3837821722032,1325.4006309509277,1325.8006069660187,None,./data/Subject_04/Session_01/Exp_data/2020_Jul_11_1109/rec_QA_run_00_block_001_trial_011.wav,04,01,Norwegian,B1,True,False,True,False,False,True,True,True,True,True,True,True,No,No,No,No,No,No,2020_Jul_11_1109,nibs_stage_1,3.2.3,59.92864521641474,
0,0,0,0,1,0,1,0,12,0,12,0,,,,,,,,,,,,,,,,,,,,,,,,,Listen to the question and speak out your answer!,1328.869225025177,None,1328.8501678228379,1330.8675599098206,"Wer viele CO2-Emissionen produziert, belastet die Umwelt.",belastet,1330.250832104683,None,1334.8844061136247,1335.9012479782104,1345.4517271757127,1346.4686198234558,1346.8683588504791,None,./data/Subject_04/Session_01/Exp_data/2020_Jul_11_1109/rec_QA_run_00_block_001_trial_012.wav,04,01,Norwegian,B1,True,False,True,False,False,True,True,True,True,True,True,True,No,No,No,No,No,No,2020_Jul_11_1109,nibs_stage_1,3.2.3,59.92864521641474,
0,0,0,0,1,0,1,0,13,0,13,0,,,,,,,,,,,,,,,,,,,,,,,,,Listen to the question and speak out your answer!,1349.902020931244,None,1349.884213757515,1351.9019508361816,Ich habe mich schon oft über den schrecklichen Service beschwert.,beschwert,1351.2852382898332,1354.6355369091034,1354.9854321718217,None,1366.4527101755143,None,1367.8694639205933,None,./data/Subject_04/Session_01/Exp_data/2020_Jul_11_1109/rec_QA_run_00_block_001_trial_013.wav,04,01,Norwegian,B1,True,False,True,False,False,True,True,True,True,True,True,True,No,No,No,No,No,No,2020_Jul_11_1109,nibs_stage_1,3.2.3,59.92864521641474,
0,0,0,0,1,0,1,0,14,0,14,0,,,,,,,,,,,,,,,,,,,,,,,,,Listen to the question and speak out your answer!,1370.9382259845734,None,1370.918608736992,1372.9366459846497,Ich werde meinen Geburtstag morgen mit meinen Freunden feiern.,feiern,1372.3196501970292,None,1376.319836163521,None,1387.503786110878,1388.5204718112946,1388.9205009937286,None,./data/Subject_04/Session_01/Exp_data/2020_Jul_11_1109/rec_QA_run_00_block_001_trial_014.wav,04,01,Norwegian,B1,True,False,True,False,False,True,True,True,True,True,True,True,No,No,No,No,No,No,2020_Jul_11_1109,nibs_stage_1,3.2.3,59.92864521641474,
0,0,0,0,1,0,1,0,15,0,15,0,,,,,,,,,,,,,,,,,,,,,,,,,Listen to the question and speak out your answer!,1391.9879100322723,None,1391.9696799039841,1393.987519979477,"Morgen will er probieren, ob seine Theorie auch in der Praxis stimmt.",probieren,1393.3708052873612,None,1397.737612271309,1398.7543458938599,1408.5715072393418,None,1409.988245010376,None,./data/Subject_04/Session_01/Exp_data/2020_Jul_11_1109/rec_QA_run_00_block_001_trial_015.wav,04,01,Norwegian,B1,True,False,True,False,False,True,True,True,True,True,True,True,No,No,No,No,No,No,2020_Jul_11_1109,nibs_stage_1,3.2.3,59.92864521641474,
0,0,0,0,1,0,1,0,16,0,16,0,,,,,,,,,,,,,,,,,,,,,,,,,Listen to the question and speak out your answer!,1413.0232830047607,None,1413.0042467832566,1415.0218858718872,Morgen werden wir um sieben Uhr aufstehen.,aufstehen,1414.4051461458207,1416.9887030124664,1417.3719473123551,None,1429.5725741624833,None,1430.9893119335175,None,./data/Subject_04/Session_01/Exp_data/2020_Jul_11_1109/rec_QA_run_00_block_001_trial_016.wav,04,01,Norwegian,B1,True,False,True,False,False,True,True,True,True,True,True,True,No,No,No,No,No,No,2020_Jul_11_1109,nibs_stage_1,3.2.3,59.92864521641474,
0,0,0,0,1,0,1,0,17,0,17,0,,,,,,,,,,,,,,,,,,,,,,,,,Listen to the question and speak out your answer!,1434.056263923645,None,1434.0217946052553,1436.05623793602,Lange dünne Nudeln nennt man Spaghetti.,nennt,1435.439548277855,None,1438.2730102777482,None,1450.6403141260148,None,1452.0569808483124,None,./data/Subject_04/Session_01/Exp_data/2020_Jul_11_1109/rec_QA_run_00_block_001_trial_017.wav,04,01,Norwegian,B1,True,False,True,False,False,True,True,True,True,True,True,True,No,No,No,No,No,No,2020_Jul_11_1109,nibs_stage_1,3.2.3,59.92864521641474,
0,0,0,0,1,0,1,0,18,0,18,0,,,,,,,,,,,,,,,,,,,,,,,,,Listen to the question and speak out your answer!,1455.0920729637146,None,1455.0729578256608,1457.0906419754028,Ich gratuliere dir zum Abschluss mit höchster Auszeichnung. ,gratuliere,1456.473964238167,None,1460.3408031702043,None,1471.6413872480393,1472.658113002777,1473.058121919632,None,./data/Subject_04/Session_01/Exp_data/2020_Jul_11_1109/rec_QA_run_00_block_001_trial_018.wav,04,01,Norwegian,B1,True,False,True,False,False,True,True,True,True,True,True,True,No,No,No,No,No,No,2020_Jul_11_1109,nibs_stage_1,3.2.3,59.92864521641474,
0,0,0,0,1,0,1,0,19,0,19,0,,,,,,,,,,,,,,,,,,,,,,,,,Listen to the question and speak out your answer!,1476.1417229175568,None,1476.107264828682,1478.1417310237885,Ich möchte einen Flug nach Spanien buchen.,buchen,1477.525029206276,1480.1087398529053,1480.4918341875077,None,1492.7257862329484,1493.7425198554993,1494.1425340175629,None,./data/Subject_04/Session_01/Exp_data/2020_Jul_11_1109/rec_QA_run_00_block_001_trial_019.wav,04,01,Norwegian,B1,True,False,True,False,False,True,True,True,True,True,True,True,No,No,No,No,No,No,2020_Jul_11_1109,nibs_stage_1,3.2.3,59.92864521641474,
0,0,0,0,1,0,1,0,20,0,20,0,,,,,,,,,,,,,,,,,,,,,,,,,Listen to the question and speak out your answer!,1497.1778600215912,None,1497.1583936929703,1499.1760349273682,Die Kinder basteln Puppen aus Filz und Watte.,basteln,1498.559424185753,1501.5095708370209,1501.8595781564713,1502.8765699863434,1513.7602172136308,None,1515.1769700050354,None,./data/Subject_04/Session_01/Exp_data/2020_Jul_11_1109/rec_QA_run_00_block_001_trial_020.wav,04,01,Norwegian,B1,True,False,True,False,False,True,True,True,True,True,True,True,No,No,No,No,No,No,2020_Jul_11_1109,nibs_stage_1,3.2.3,59.92864521641474,
0,0,0,0,1,0,1,0,21,0,21,0,,,,,,,,,,,,,,,,,,,,,,,,,Listen to the question and speak out your answer!,1518.2453818321228,None,1518.2260788202286,1520.2439839839935,In der Pause werden kleine Brötchen serviert.,serviert,1519.6271522283555,1522.4775660037994,1522.8606992006303,1523.8774750232697,1534.8279371500016,None,1536.244679927826,None,./data/Subject_04/Session_01/Exp_data/2020_Jul_11_1109/rec_QA_run_00_block_001_trial_021.wav,04,01,Norwegian,B1,True,False,True,False,False,True,True,True,True,True,True,True,No,No,No,No,No,No,2020_Jul_11_1109,nibs_stage_1,3.2.3,59.92864521641474,
0,0,0,0,1,0,1,0,22,0,22,0,,,,,,,,,,,,,,,,,,,,,,,,,Listen to the question and speak out your answer!,1539.312894821167,None,1539.293822836876,1541.3116149902344,"Schauen Sie nach draußen, der Schnee fällt.",fällt,1540.6949241399766,1543.2785348892212,1543.6620393037797,1544.67844581604,1555.895592236519,None,1557.312425851822,None,./data/Subject_04/Session_01/Exp_data/2020_Jul_11_1109/rec_QA_run_00_block_001_trial_022.wav,04,01,Norwegian,B1,True,False,True,False,False,True,True,True,True,True,True,True,No,No,No,No,No,No,2020_Jul_11_1109,nibs_stage_1,3.2.3,59.92864521641474,
0,0,0,0,1,0,1,0,23,0,23,0,,,,,,,,,,,,,,,,,,,,,,,,,Listen to the question and speak out your answer!,1560.379338979721,None,1560.345011520386,1562.3793449401855,Mit dieser neuen Kamera kann man bei jedem Licht fotografieren.,fotografieren,1561.7626393079759,1565.5461699962616,1565.9295132398606,None,1576.9635181665421,None,1578.3801629543304,None,./data/Subject_04/Session_01/Exp_data/2020_Jul_11_1109/rec_QA_run_00_block_001_trial_023.wav,04,01,Norwegian,B1,True,False,True,False,False,True,True,True,True,True,True,True,No,No,No,No,No,No,2020_Jul_11_1109,nibs_stage_1,3.2.3,59.92864521641474,
0,0,0,0,1,0,1,0,24,0,24,0,,,,,,,,,,,,,,,,,,,,,,,,,Listen to the question and speak out your answer!,1581.4145948886871,None,1581.395995926857,1583.4137558937073,Der Konzern kontrolliert die Mehrheit der Aktion.,kontrolliert,1582.7637272119523,1585.747211933136,1586.1305721044541,None,1597.96495821476,None,1599.381306886673,None,./data/Subject_04/Session_01/Exp_data/2020_Jul_11_1109/rec_QA_run_00_block_001_trial_024.wav,04,01,Norwegian,B1,True,False,True,False,False,True,True,True,True,True,True,True,No,No,No,No,No,No,2020_Jul_11_1109,nibs_stage_1,3.2.3,59.92864521641474,
