run.thisRepN,run.thisTrialN,run.thisN,run.thisIndex,artifact_trial.thisRepN,artifact_trial.thisTrialN,artifact_trial.thisN,artifact_trial.thisIndex,QA_block.thisRepN,QA_block.thisTrialN,QA_block.thisN,QA_block.thisIndex,QA_trial.thisRepN,QA_trial.thisTrialN,QA_trial.thisN,QA_trial.thisIndex,fade_in_text.text,fade_in_text.started,fade_in_text.stopped,Artifact_intro_title.started,Artifact_intro_title.stopped,Artifact_intro_text.text,Artifact_intro_text.started,Artifact_intro_text.stopped,Artifact_intro_audio.started,Artifact_intro_audio.stopped,Artifact_intro_cont.started,Artifact_intro_cont.stopped,Artifact_rec_text.text,Artifact_rec_text.started,Artifact_rec_text.stopped,Artifact_rec_beep_hint.started,Artifact_rec_beep_hint.stopped,Artifact_rec_action.started,Artifact_rec_action.stopped,Artifact_rec_beep_start.started,Artifact_rec_beep_start.stopped,Artifact_rec_recording.started,Artifact_rec_recording.stopped,Artifact_rec_beep_end.started,Artifact_rec_beep_end.stopped,Artifact_rec_break.started,Artifact_rec_break.stopped,RS_intro_title.started,RS_intro_title.stopped,RS_intro_text.text,RS_intro_text.started,RS_intro_text.stopped,RS_intro_audio.started,RS_intro_audio.stopped,RS_rec_text.text,RS_rec_text.started,RS_rec_text.stopped,Pause_cont.started,Pause_cont.stopped,QA_intro_title.started,QA_intro_title.stopped,QA_intro_text.text,QA_intro_text.started,QA_intro_text.stopped,QA_intro_audio.started,QA_intro_audio.stopped,QA_intro_cont.started,QA_intro_cont.stopped,QA_rec_text.text,QA_rec_text.started,QA_rec_text.stopped,QA_rec_beep_hint.started,QA_rec_beep_hint.stopped,QA_rec_question.sen_text,QA_rec_question.cen_text,QA_rec_question.started,QA_rec_question.stopped,QA_rec_beep_start.started,QA_rec_beep_start.stopped,QA_rec_beep_end.started,QA_rec_beep_end.stopped,QA_rec_break.started,QA_rec_break.stopped,filename,participant,session,First language,German level,Full_screen,Instruction,Intro,Artifact,Cali_pre,Fade_in_out,Artifact_within,Resting_State,QA,Pause,Cali_post,End,Breakpoint_Cali_pre_trial,Breakpoint_Run,Breakpoint_RS_block,Breakpoint_QA_block,Breakpoint_QA_trial,Breakpoint_Cali_post_trial,date,expName,psychopyVersion,frameRate,
2,0,2,0,0,0,0,0,,,,,,,,,Please remain seated until further instruction via the earphone.,58.379610776901245,None,60.41316890716553,None,"  - Task: Artifacts collection   
  - Please follow audio instruction              
",60.41316890716553,None,60.394610953331,None,86.78112196922302,None,,88.96455788612366,None,88.94583494663239,90.94786787033081,90.33126480579377,None,93.73142988681793,None,95.13142879009247,105.1319649219513,105.5319708108902,None,106.93212985992432,107.93216586112976,,,,,,,,,,,,,,,,,,,,,,,,,,,,,,,,,,,,,,04,01,Norwegian,B1,True,False,True,False,False,True,True,True,True,True,True,True,No,2,No,No,No,No,2020_Jul_11_1212,nibs_stage_1,3.2.3,60.001688051030634,
2,0,2,0,1,0,1,0,,,,,,,,,,,,,,,,,,,,,,110.96602988243103,None,110.96380503177643,112.96567988395691,112.34904773235321,None,115.74922473430634,None,117.1493008852005,127.14984393119812,127.54974777698517,None,128.94995498657227,129.95015478134155,,,,,,,,,,,,,,,,,,,,,,,,,,,,,,,,,,,,,,04,01,Norwegian,B1,True,False,True,False,False,True,True,True,True,True,True,True,No,2,No,No,No,No,2020_Jul_11_1212,nibs_stage_1,3.2.3,60.001688051030634,
2,0,2,0,2,0,2,0,,,,,,,,,,,,,,,,,,,,,,132.98331999778748,132.98331999778748,132.96495611667632,134.96660089492798,134.36673386096953,None,137.7668157339096,None,139.16704185009002,149.16742181777954,149.56739671230315,None,150.96749091148376,151.96748185157776,,,,,,,,,,,,,,,,,,,,,,,,,,,,,,,,,,,,,,04,01,Norwegian,B1,True,False,True,False,False,True,True,True,True,True,True,True,No,2,No,No,No,No,2020_Jul_11_1212,nibs_stage_1,3.2.3,60.001688051030634,
2,0,2,0,3,0,3,0,,,,,,,,,,,,,,,,,,,,,,155.00125098228455,None,154.9826200723648,156.98445296287537,156.36777670383452,None,159.76794989109038,None,161.1679478406906,171.16846680641174,171.5685747385025,None,172.96863794326782,173.96869778633118,,,,,,,,,,,,,,,,,,,,,,,,,,,,,,,,,,,,,,04,01,Norwegian,B1,True,False,True,False,False,True,True,True,True,True,True,True,No,2,No,No,No,No,2020_Jul_11_1212,nibs_stage_1,3.2.3,60.001688051030634,
2,0,2,0,4,0,4,0,,,,,,,,,,,,,,,,,,,,,,177.01925778388977,None,177.000341963768,179.00228691101074,178.385586810112,None,181.7857697725296,None,183.18582971096038,193.18626594543457,193.5863626718521,None,194.9867458343506,195.98649787902832,,,,,,,,,,,,,,,,,,,,,,,,,,,,,,,,,,,,,,04,01,Norwegian,B1,True,False,True,False,False,True,True,True,True,True,True,True,No,2,No,No,No,No,2020_Jul_11_1212,nibs_stage_1,3.2.3,60.001688051030634,
2,0,2,0,5,0,5,0,,,,,,,,,,,,,,,,,,,,,,199.03673696517944,None,199.01821405887603,201.02000999450684,200.40338571071624,None,203.80369884967803,None,205.20363671779631,215.20408987998962,215.60408480167388,None,217.00431299209595,218.00436186790466,,,,,,,,,,,,,,,,,,,,,,,,,,,,,,,,,,,,,,04,01,Norwegian,B1,True,False,True,False,False,True,True,True,True,True,True,True,No,2,No,No,No,No,2020_Jul_11_1212,nibs_stage_1,3.2.3,60.001688051030634,
2,0,2,0,6,0,6,0,,,,,,,,,,,,,,,,,,,,,,221.05454993247986,None,221.0360151052475,223.0378179550171,222.4211867570877,None,225.82137687206267,None,227.22145874500274,237.22195482254028,237.62193567752837,None,239.0220649242401,240.02212476730347,,,,,,,,,,,,,,,,,,,,,,,,,,,,,,,,,,,,,,04,01,Norwegian,B1,True,False,True,False,False,True,True,True,True,True,True,True,No,2,No,No,No,No,2020_Jul_11_1212,nibs_stage_1,3.2.3,60.001688051030634,
2,0,2,0,7,0,7,0,,,,,,,,,,,,,,,,,,,,,,243.0724937915802,None,243.0538211584091,245.0559787750244,244.43933279514312,247.43934679031372,247.83930571079253,None,249.239510846138,259.2399878501892,259.6400168657303,260.6400649547577,261.04010796546936,262.0401508808136,,,,,,,,,,,,,,,,,,,,,,,,,,,,,,,,,,,,,,04,01,Norwegian,B1,True,False,True,False,False,True,True,True,True,True,True,True,No,2,No,No,No,No,2020_Jul_11_1212,nibs_stage_1,3.2.3,60.001688051030634,
2,0,2,0,8,0,8,0,,,,,,,,,,,,,,,,,,,,,,265.09027576446533,None,265.07202608585357,267.07373881340027,266.4570158243179,269.45714688301086,269.8571558713913,None,271.25726373195647,281.25797486305237,281.6578157663345,None,283.05791783332825,284.05799984931946,,,,,,,,,,,,,,,,,,,,,,,,,,,,,,,,,,,,,,04,01,Norwegian,B1,True,False,True,False,False,True,True,True,True,True,True,True,No,2,No,No,No,No,2020_Jul_11_1212,nibs_stage_1,3.2.3,60.001688051030634,
2,0,2,0,9,0,9,0,,,,,,,,,,,,,,,,,,,,,,287.10815691947937,None,287.0899291753769,289.0915288925171,288.47483665943145,291.4749698638916,291.87501366138457,None,293.2750848054886,303.2756259441376,303.67563087940215,None,305.075630903244,306.07572984695435,,,,,,,,,,,,,,,,,,,,,,,,,,,,,,,,,,,,,,04,01,Norwegian,B1,True,False,True,False,False,True,True,True,True,True,True,True,No,2,No,No,No,No,2020_Jul_11_1212,nibs_stage_1,3.2.3,60.001688051030634,
2,0,2,0,10,0,10,0,,,,,,,,,,,,,,,,,,,,,,309.12590980529785,None,309.1074600934982,311.10936188697815,310.4926517724991,None,313.8928437948227,None,315.29284675121306,325.2934229373932,325.69340879917144,326.6934199333191,327.09349179267883,328.0935568809509,,,,,,,,,,,,,,,,,,,,,,,,,,,,,,,,,,,,,,04,01,Norwegian,B1,True,False,True,False,False,True,True,True,True,True,True,True,No,2,No,No,No,No,2020_Jul_11_1212,nibs_stage_1,3.2.3,60.001688051030634,
2,0,2,0,11,0,11,0,,,,,,,,,,,,,,,,,,,,,,331.14372396469116,None,331.1252721071243,333.12713980674744,332.51034672260283,None,335.9107356786728,None,337.3107357740402,347.3112108707428,347.71119577884673,None,349.11132287979126,350.1113359928131,,,,,,,,,,,,,,,,,,,,,,,,,,,,,,,,,,,,,,04,01,Norwegian,B1,True,False,True,False,False,True,True,True,True,True,True,True,No,2,No,No,No,No,2020_Jul_11_1212,nibs_stage_1,3.2.3,60.001688051030634,
2,0,2,0,12,0,12,0,,,,,,,,,,,,,,,,,,,,,,353.1615128517151,None,353.1430590867996,355.1449499130249,354.528244805336,357.5284459590912,357.928356719017,None,359.3284898519516,369.3290078639984,369.72901780605315,370.7297189235687,371.1292247772217,372.12972593307495,,,,,,,,,,,,,,,,,,,,,,,,,,,,,,,,,,,,,,04,01,Norwegian,B1,True,False,True,False,False,True,True,True,True,True,True,True,No,2,No,No,No,No,2020_Jul_11_1212,nibs_stage_1,3.2.3,60.001688051030634,
2,0,2,0,13,0,13,0,,,,,,,,,,,,,,,,,,,,,,375.1792469024658,None,375.16122205257415,377.16274881362915,376.54596478939055,None,379.94622881412505,None,381.346213889122,391.3468098640442,391.7469168424606,None,393.1469519138336,394.14707589149475,,,,,,,,,,,,,,,,,,,,,,,,,,,,,,,,,,,,,,04,01,Norwegian,B1,True,False,True,False,False,True,True,True,True,True,True,True,No,2,No,No,No,No,2020_Jul_11_1212,nibs_stage_1,3.2.3,60.001688051030634,
2,0,2,0,14,0,14,0,,,,,,,,,,,,,,,,,,,,,,397.1976799964905,None,397.1786921739578,399.18057680130005,398.56375868320464,None,401.96418578624724,None,403.36413581371306,413.364697933197,413.7646296739578,414.764652967453,415.16471886634827,416.16474890708923,,,,,,,,,,,,,,,,,,,,,,,,,,,,,,,,,,,,,,04,01,Norwegian,B1,True,False,True,False,False,True,True,True,True,True,True,True,No,2,No,No,No,No,2020_Jul_11_1212,nibs_stage_1,3.2.3,60.001688051030634,
2,0,2,0,,,,,0,0,0,0,0,0,0,0,,,,,,,,,,,,,,,,,,,,,,,,,,,,626.625766992569,None," - Task: Keep seated and relaxed with either      
             opening or closing eyes                  
 - Beep sound with decreasing pitch: Block finish 
",626.625766992569,None,626.6069330215455,None,"Please keep relaxed and close your eyes.
",649.6595017910004,829.6686408519745,833.0363998413086,None,848.0365259647369,None," - Task: Listen to the question& Speak out answer 
 - Melodious beep sound: Trial start              
 - Silent sound (blank): censored word            
 - Beep sound with increasing pitch: Rec. start   
 - Beep sound with decreasing pitch: Rec. finish  
",848.0365259647369,None,848.0168607950211,None,887.4215247631073,None,Listen to the question and speak out your answer!,890.4893178939819,None,890.4690043687821,892.4722337722778,"Dem Patienten geht es viel besser, so dass der Arzt ihm das Rauchen erlaubte.",erlaubte,891.8719368696213,896.4222359657288,896.8221967935563,897.8222599029541,907.0726958036423,908.072667837143,908.4727849960327,909.4728307723999,./data/Subject_04/Session_01/Exp_data/2020_Jul_11_1212/rec_QA_run_02_block_000_trial_000.wav,04,01,Norwegian,B1,True,False,True,False,False,True,True,True,True,True,True,True,No,2,No,No,No,No,2020_Jul_11_1212,nibs_stage_1,3.2.3,60.001688051030634,
2,0,2,0,,,,,0,0,0,0,1,0,1,0,,,,,,,,,,,,,,,,,,,,,,,,,,,,,,,,,,,,,,,,,,,,,,,,,Listen to the question and speak out your answer!,911.5232379436493,None,911.5044838428498,913.5060739517212,An der nächsten Kreuzung müssen Sie rechts abbiegen.,abbiegen,912.9060428857804,None,916.123076748848,None,928.1071007966996,None,929.5071709156036,930.5072247982025,./data/Subject_04/Session_01/Exp_data/2020_Jul_11_1212/rec_QA_run_02_block_000_trial_001.wav,04,01,Norwegian,B1,True,False,True,False,False,True,True,True,True,True,True,True,No,2,No,No,No,No,2020_Jul_11_1212,nibs_stage_1,3.2.3,60.001688051030634,
2,0,2,0,,,,,0,0,0,0,2,0,2,0,,,,,,,,,,,,,,,,,,,,,,,,,,,,,,,,,,,,,,,,,,,,,,,,,Listen to the question and speak out your answer!,932.5576298236847,None,932.5388778686524,934.5404579639435,"Ich habe mich bei einem Kurs angemeldet, um Deutsch zu lernen.",angemeldet,933.9404998540879,937.4406929016113,937.8406167745591,None,949.1412816762925,None,950.5580399036407,None,./data/Subject_04/Session_01/Exp_data/2020_Jul_11_1212/rec_QA_run_02_block_000_trial_002.wav,04,01,Norwegian,B1,True,False,True,False,False,True,True,True,True,True,True,True,No,2,No,No,No,No,2020_Jul_11_1212,nibs_stage_1,3.2.3,60.001688051030634,
2,0,2,0,,,,,0,0,0,0,3,0,3,0,,,,,,,,,,,,,,,,,,,,,,,,,,,,,,,,,,,,,,,,,,,,,,,,,Listen to the question and speak out your answer!,953.6086637973785,None,953.5897449493409,955.6083118915558,"Um mein Auto zu kaufen, die Bank hat mir das Geld geliehen.",geliehen,954.991573882103,None,958.8584197282792,959.8751409053802,970.1923597574234,971.2090799808502,971.6091029644012,None,./data/Subject_04/Session_01/Exp_data/2020_Jul_11_1212/rec_QA_run_02_block_000_trial_003.wav,04,01,Norwegian,B1,True,False,True,False,False,True,True,True,True,True,True,True,No,2,No,No,No,No,2020_Jul_11_1212,nibs_stage_1,3.2.3,60.001688051030634,
2,0,2,0,,,,,0,0,0,0,4,0,4,0,,,,,,,,,,,,,,,,,,,,,,,,,,,,,,,,,,,,,,,,,,,,,,,,,Listen to the question and speak out your answer!,974.6593449115753,None,974.6407889366151,976.6593708992004,"Wir entschieden uns dafür, mit dem Flugzeug nach Stockholm zu fliegen.",fliegen,976.0426266908646,None,980.6428848028183,None,991.2433827638627,None,992.6601707935333,None,./data/Subject_04/Session_01/Exp_data/2020_Jul_11_1212/rec_QA_run_02_block_000_trial_004.wav,04,01,Norwegian,B1,True,False,True,False,False,True,True,True,True,True,True,True,No,2,No,No,No,No,2020_Jul_11_1212,nibs_stage_1,3.2.3,60.001688051030634,
2,0,2,0,,,,,0,0,0,0,5,0,5,0,,,,,,,,,,,,,,,,,,,,,,,,,,,,,,,,,,,,,,,,,,,,,,,,,Listen to the question and speak out your answer!,995.7108108997345,None,995.691890859604,997.710343837738,In der Morgen wasche ich mein Gesicht.,wasche,997.0937197923661,None,999.760530781746,None,1012.2944918394089,None,1013.7112708091736,None,./data/Subject_04/Session_01/Exp_data/2020_Jul_11_1212/rec_QA_run_02_block_000_trial_005.wav,04,01,Norwegian,B1,True,False,True,False,False,True,True,True,True,True,True,True,No,2,No,No,No,No,2020_Jul_11_1212,nibs_stage_1,3.2.3,60.001688051030634,
2,0,2,0,,,,,0,0,0,0,6,0,6,0,,,,,,,,,,,,,,,,,,,,,,,,,,,,,,,,,,,,,,,,,,,,,,,,,Listen to the question and speak out your answer!,1016.7615759372711,None,1016.7429310321809,1018.7614817619324,Man kann die salzige Luft riechen.,riechen,1018.1447556734086,None,1020.5449057340622,1021.5616188049316,1033.3456128358841,1034.3622829914093,1034.7623689174652,None,./data/Subject_04/Session_01/Exp_data/2020_Jul_11_1212/rec_QA_run_02_block_000_trial_006.wav,04,01,Norwegian,B1,True,False,True,False,False,True,True,True,True,True,True,True,No,2,No,No,No,No,2020_Jul_11_1212,nibs_stage_1,3.2.3,60.001688051030634,
2,0,2,0,,,,,0,0,0,0,7,0,7,0,,,,,,,,,,,,,,,,,,,,,,,,,,,,,,,,,,,,,,,,,,,,,,,,,Listen to the question and speak out your answer!,1037.8296837806702,None,1037.8106629610063,1039.8292307853699,Die Wissenschaftler aus der Physik heißen Physiker.,heißen,1039.2125757455826,None,1042.812707734108,None,1054.3799696683884,None,1055.796711921692,None,./data/Subject_04/Session_01/Exp_data/2020_Jul_11_1212/rec_QA_run_02_block_000_trial_007.wav,04,01,Norwegian,B1,True,False,True,False,False,True,True,True,True,True,True,True,No,2,No,No,No,No,2020_Jul_11_1212,nibs_stage_1,3.2.3,60.001688051030634,
2,0,2,0,,,,,0,0,0,0,8,0,8,0,,,,,,,,,,,,,,,,,,,,,,,,,,,,,,,,,,,,,,,,,,,,,,,,,Listen to the question and speak out your answer!,1058.8636119365692,None,1058.8284060001374,1060.863627910614,Ich habe die Zitrone in Scheiben geschnitten.,geschnitten,1060.2470017194748,None,1063.1805437326432,1064.1973309516907,1075.447783780098,None,1076.8645219802856,None,./data/Subject_04/Session_01/Exp_data/2020_Jul_11_1212/rec_QA_run_02_block_000_trial_008.wav,04,01,Norwegian,B1,True,False,True,False,False,True,True,True,True,True,True,True,No,2,No,No,No,No,2020_Jul_11_1212,nibs_stage_1,3.2.3,60.001688051030634,
2,0,2,0,,,,,0,0,0,0,9,0,9,0,,,,,,,,,,,,,,,,,,,,,,,,,,,,,,,,,,,,,,,,,,,,,,,,,Listen to the question and speak out your answer!,1079.898001909256,None,1079.8795227766038,1081.8981227874756,Ich habe gestern Abend mit meiner Mutter geredet.,geredet,1081.2813227891922,1084.1648819446564,1084.5482497930527,None,1096.4821737527848,1097.4989857673645,1097.8988769054413,None,./data/Subject_04/Session_01/Exp_data/2020_Jul_11_1212/rec_QA_run_02_block_000_trial_009.wav,04,01,Norwegian,B1,True,False,True,False,False,True,True,True,True,True,True,True,No,2,No,No,No,No,2020_Jul_11_1212,nibs_stage_1,3.2.3,60.001688051030634,
2,0,2,0,,,,,0,0,0,0,10,0,10,0,,,,,,,,,,,,,,,,,,,,,,,,,,,,,,,,,,,,,,,,,,,,,,,,,Listen to the question and speak out your answer!,1100.9489707946777,None,1100.9306310653687,1102.9491908550262,Dank genügend Sonnenschein und Wasser können im Amazonaswald riesige Bäume wachsen.,wachsen,1102.3324878931046,None,1107.7994077920914,None,1117.5331998586655,None,1118.9499609470367,None,./data/Subject_04/Session_01/Exp_data/2020_Jul_11_1212/rec_QA_run_02_block_000_trial_010.wav,04,01,Norwegian,B1,True,False,True,False,False,True,True,True,True,True,True,True,No,2,No,No,No,No,2020_Jul_11_1212,nibs_stage_1,3.2.3,60.001688051030634,
2,0,2,0,,,,,0,0,0,0,11,0,11,0,,,,,,,,,,,,,,,,,,,,,,,,,,,,,,,,,,,,,,,,,,,,,,,,,Listen to the question and speak out your answer!,1122.0168647766113,None,1121.9982478380205,1124.01695394516,Die Teilnehmer müssen sich im Voraus für den Kurs anmelden.,anmelden,1123.366781783104,1126.817105770111,1127.200315785408,None,1138.5842257261277,None,1140.0009808540344,None,./data/Subject_04/Session_01/Exp_data/2020_Jul_11_1212/rec_QA_run_02_block_000_trial_011.wav,04,01,Norwegian,B1,True,False,True,False,False,True,True,True,True,True,True,True,No,2,No,No,No,No,2020_Jul_11_1212,nibs_stage_1,3.2.3,60.001688051030634,
2,0,2,0,,,,,0,0,0,0,12,0,12,0,,,,,,,,,,,,,,,,,,,,,,,,,,,,,,,,,,,,,,,,,,,,,,,,,Listen to the question and speak out your answer!,1143.0684988498688,None,1143.0493278265,1145.0679008960724,"Ich rechne fest damit, dass er kommt.",rechne,1144.4512027025223,None,1147.2180016756058,None,1159.6519938230515,None,1161.0686609745026,None,./data/Subject_04/Session_01/Exp_data/2020_Jul_11_1212/rec_QA_run_02_block_000_trial_012.wav,04,01,Norwegian,B1,True,False,True,False,False,True,True,True,True,True,True,True,No,2,No,No,No,No,2020_Jul_11_1212,nibs_stage_1,3.2.3,60.001688051030634,
2,0,2,0,,,,,0,0,0,0,13,0,13,0,,,,,,,,,,,,,,,,,,,,,,,,,,,,,,,,,,,,,,,,,,,,,,,,,Listen to the question and speak out your answer!,1164.1190598011017,None,1164.1004070281983,1166.1189668178558,Wir schneiden den Apfel in zwei Hälften. ,schneiden,1165.5022447824479,None,1168.635761809349,None,1180.7030606985093,1181.7197968959808,1182.1198098659515,None,./data/Subject_04/Session_01/Exp_data/2020_Jul_11_1212/rec_QA_run_02_block_000_trial_013.wav,04,01,Norwegian,B1,True,False,True,False,False,True,True,True,True,True,True,True,No,2,No,No,No,No,2020_Jul_11_1212,nibs_stage_1,3.2.3,60.001688051030634,
2,0,2,0,,,,,0,0,0,0,14,0,14,0,,,,,,,,,,,,,,,,,,,,,,,,,,,,,,,,,,,,,,,,,,,,,,,,,Listen to the question and speak out your answer!,1185.1704709529877,None,1185.151536846161,1187.1701607704163,Wollen wir morgen zu Hause bleiben oder uns einen Film im Kino ansehen?,ansehen,1186.5533498048783,1190.8702628612518,1191.2535796880723,None,1201.7541487932206,None,1203.170863866806,None,./data/Subject_04/Session_01/Exp_data/2020_Jul_11_1212/rec_QA_run_02_block_000_trial_014.wav,04,01,Norwegian,B1,True,False,True,False,False,True,True,True,True,True,True,True,No,2,No,No,No,No,2020_Jul_11_1212,nibs_stage_1,3.2.3,60.001688051030634,
2,0,2,0,,,,,0,0,0,0,15,0,15,0,,,,,,,,,,,,,,,,,,,,,,,,,,,,,,,,,,,,,,,,,,,,,,,,,Listen to the question and speak out your answer!,1206.2217547893524,None,1206.2025739192964,1208.221127986908,Christoph Kolumbus hat am vierzehn zweiundneunzig Amerika entdeckt.,entdeckt,1207.6044147729874,None,1212.3379936933518,None,1222.8051868200303,None,1224.2219607830048,None,./data/Subject_04/Session_01/Exp_data/2020_Jul_11_1212/rec_QA_run_02_block_000_trial_015.wav,04,01,Norwegian,B1,True,False,True,False,False,True,True,True,True,True,True,True,No,2,No,No,No,No,2020_Jul_11_1212,nibs_stage_1,3.2.3,60.001688051030634,
2,0,2,0,,,,,0,0,0,0,16,0,16,0,,,,,,,,,,,,,,,,,,,,,,,,,,,,,,,,,,,,,,,,,,,,,,,,,Listen to the question and speak out your answer!,1227.2893559932709,None,1227.2702998876573,1229.2888658046722,Du muss deine schmutzige Kleidung in der Wäscherei waschen.,waschen,1228.6721528291703,None,1232.2056928396225,None,1243.8730366945267,None,1245.2896909713745,None,./data/Subject_04/Session_01/Exp_data/2020_Jul_11_1212/rec_QA_run_02_block_000_trial_016.wav,04,01,Norwegian,B1,True,False,True,False,False,True,True,True,True,True,True,True,No,2,No,No,No,No,2020_Jul_11_1212,nibs_stage_1,3.2.3,60.001688051030634,
2,0,2,0,,,,,0,0,0,0,17,0,17,0,,,,,,,,,,,,,,,,,,,,,,,,,,,,,,,,,,,,,,,,,,,,,,,,,Listen to the question and speak out your answer!,1248.3235368728638,None,1248.3046998739244,1250.323273897171,"Meine Geschichte ist wahr, ich habe keine Lügen erzählt.",erzählt,1249.7065587759018,None,1253.406748843193,1254.4234879016876,1264.9073336839676,None,1266.3241248130798,None,./data/Subject_04/Session_01/Exp_data/2020_Jul_11_1212/rec_QA_run_02_block_000_trial_017.wav,04,01,Norwegian,B1,True,False,True,False,False,True,True,True,True,True,True,True,No,2,No,No,No,No,2020_Jul_11_1212,nibs_stage_1,3.2.3,60.001688051030634,
2,0,2,0,,,,,0,0,0,0,18,0,18,0,,,,,,,,,,,,,,,,,,,,,,,,,,,,,,,,,,,,,,,,,,,,,,,,,Listen to the question and speak out your answer!,1269.3582479953766,None,1269.3391427755357,1271.3576819896698,"Die Firma hat einen Fachmann hinzugezogen, um das Netzwerk zu reparieren.",reparieren,1270.7410507917405,None,1275.9078827619553,None,1285.941744875908,None,1287.3585047721863,None,./data/Subject_04/Session_01/Exp_data/2020_Jul_11_1212/rec_QA_run_02_block_000_trial_018.wav,04,01,Norwegian,B1,True,False,True,False,False,True,True,True,True,True,True,True,No,2,No,No,No,No,2020_Jul_11_1212,nibs_stage_1,3.2.3,60.001688051030634,
2,0,2,0,,,,,0,0,0,0,19,0,19,0,,,,,,,,,,,,,,,,,,,,,,,,,,,,,,,,,,,,,,,,,,,,,,,,,Listen to the question and speak out your answer!,1290.3920848369598,None,1290.3568600654603,1292.3920748233795,Ich nehme nicht gerne Zucker zum Tee.,nehme,1291.7753837823868,1294.0255007743835,1294.408844780922,None,1306.976156783104,None,1308.3929297924042,None,./data/Subject_04/Session_01/Exp_data/2020_Jul_11_1212/rec_QA_run_02_block_000_trial_019.wav,04,01,Norwegian,B1,True,False,True,False,False,True,True,True,True,True,True,True,No,2,No,No,No,No,2020_Jul_11_1212,nibs_stage_1,3.2.3,60.001688051030634,
2,0,2,0,,,,,0,0,0,0,20,0,20,0,,,,,,,,,,,,,,,,,,,,,,,,,,,,,,,,,,,,,,,,,,,,,,,,,Listen to the question and speak out your answer!,1311.4264109134674,None,1311.3912879467011,1313.4264888763428,Ich schicke die Dateien als E-Mail-Anhang.,schicke,1312.7765117406846,1315.293259859085,1315.7099247694016,None,1327.977259707451,1328.9942378997803,1329.3940799236298,None,./data/Subject_04/Session_01/Exp_data/2020_Jul_11_1212/rec_QA_run_02_block_000_trial_020.wav,04,01,Norwegian,B1,True,False,True,False,False,True,True,True,True,True,True,True,No,2,No,No,No,No,2020_Jul_11_1212,nibs_stage_1,3.2.3,60.001688051030634,
2,0,2,0,,,,,0,0,0,0,21,0,21,0,,,,,,,,,,,,,,,,,,,,,,,,,,,,,,,,,,,,,,,,,,,,,,,,,Listen to the question and speak out your answer!,1332.4448249340057,None,1332.4089520692826,1334.4442539215088,"Früh übt sich, wer ein Meister werden will.",werden,1333.794184756279,1336.544354915619,1336.961009812355,None,1348.994982790947,None,1350.4117097854614,None,./data/Subject_04/Session_01/Exp_data/2020_Jul_11_1212/rec_QA_run_02_block_000_trial_021.wav,04,01,Norwegian,B1,True,False,True,False,False,True,True,True,True,True,True,True,No,2,No,No,No,No,2020_Jul_11_1212,nibs_stage_1,3.2.3,60.001688051030634,
2,0,2,0,,,,,0,0,0,0,22,0,22,0,,,,,,,,,,,,,,,,,,,,,,,,,,,,,,,,,,,,,,,,,,,,,,,,,Listen to the question and speak out your answer!,1353.463164806366,None,1353.4434348583222,1355.4619159698486,Das Flugzeug fliegt den vorgeschriebenen Kurs.,fliegt,1354.8452697515488,1357.8287529945374,1358.2120497941971,None,1370.045962882042,1371.0627658367157,1371.462786912918,None,./data/Subject_04/Session_01/Exp_data/2020_Jul_11_1212/rec_QA_run_02_block_000_trial_022.wav,04,01,Norwegian,B1,True,False,True,False,False,True,True,True,True,True,True,True,No,2,No,No,No,No,2020_Jul_11_1212,nibs_stage_1,3.2.3,60.001688051030634,
2,0,2,0,,,,,0,0,0,0,23,0,23,0,,,,,,,,,,,,,,,,,,,,,,,,,,,,,,,,,,,,,,,,,,,,,,,,,Listen to the question and speak out your answer!,1374.5308637619019,None,1374.5110647439958,1376.5297269821167,In Wien tanzt man gerne Walzer.,tanzt,1375.9129567861557,None,1378.3800547838212,None,1391.1137917757035,1392.1305167675018,1392.5305578708649,None,./data/Subject_04/Session_01/Exp_data/2020_Jul_11_1212/rec_QA_run_02_block_000_trial_023.wav,04,01,Norwegian,B1,True,False,True,False,False,True,True,True,True,True,True,True,No,2,No,No,No,No,2020_Jul_11_1212,nibs_stage_1,3.2.3,60.001688051030634,
2,0,2,0,,,,,0,0,0,0,24,0,24,0,,,,,,,,,,,,,,,,,,,,,,,,,,,,,,,,,,,,,,,,,,,,,,,,,Listen to the question and speak out your answer!,1395.598594903946,None,1395.5789167642595,1397.597485780716,In Wien besuchen die Touristen am liebsten den Stephansdom und das Schloss Schönbrunn.,besuchen,1396.980793786049,None,1402.3810168027878,None,1412.1816797971726,1413.1985249519348,1413.5650129318237,None,./data/Subject_04/Session_01/Exp_data/2020_Jul_11_1212/rec_QA_run_02_block_000_trial_024.wav,04,01,Norwegian,B1,True,False,True,False,False,True,True,True,True,True,True,True,No,2,No,No,No,No,2020_Jul_11_1212,nibs_stage_1,3.2.3,60.001688051030634,
2,0,2,0,,,,,0,0,0,0,,,,,,,,,,,,,,,,,,,,,,,,,,,,,,,,,,,,,,,,,,1417.6151599884033,None,,,,,,,,,,,,,,,,,,,,,,,,,,04,01,Norwegian,B1,True,False,True,False,False,True,True,True,True,True,True,True,No,2,No,No,No,No,2020_Jul_11_1212,nibs_stage_1,3.2.3,60.001688051030634,
2,0,2,0,,,,,1,0,1,0,0,0,0,0,,,,,,,,,,,,,,,,,,,,,,,,,,,,,,,,,,,,,,,,,,,,,,,,,Listen to the question and speak out your answer!,1432.5674917697906,None,1432.546604371071,1434.5660209655762,Willi möchte gerne an der Universität Informatik studieren.,studieren,1433.949329686165,None,1438.1828468561173,None,1449.1500838518143,1450.1668498516083,1450.5668478012085,None,./data/Subject_04/Session_01/Exp_data/2020_Jul_11_1212/rec_QA_run_02_block_001_trial_000.wav,04,01,Norwegian,B1,True,False,True,False,False,True,True,True,True,True,True,True,No,2,No,No,No,No,2020_Jul_11_1212,nibs_stage_1,3.2.3,60.001688051030634,
2,0,2,0,,,,,1,0,1,0,1,0,1,0,,,,,,,,,,,,,,,,,,,,,,,,,,,,,,,,,,,,,,,,,,,,,,,,,Listen to the question and speak out your answer!,1453.601087808609,None,1453.5819167852403,1455.6004838943481,Wir werden jedes Paket innerhalb von fünf Arbeitstagen liefern.,liefern,1454.9836998701096,None,1459.2505977869034,None,1470.1845138788224,None,1471.6012468338013,None,./data/Subject_04/Session_01/Exp_data/2020_Jul_11_1212/rec_QA_run_02_block_001_trial_001.wav,04,01,Norwegian,B1,True,False,True,False,False,True,True,True,True,True,True,True,No,2,No,No,No,No,2020_Jul_11_1212,nibs_stage_1,3.2.3,60.001688051030634,
2,0,2,0,,,,,1,0,1,0,2,0,2,0,,,,,,,,,,,,,,,,,,,,,,,,,,,,,,,,,,,,,,,,,,,,,,,,,Listen to the question and speak out your answer!,1474.6680788993835,None,1474.6496138334276,1476.6681628227234,"Wir werden später bestellen, denn es fehlen noch einige Gäste.",fehlen,1476.0514827489853,None,1480.218336892128,None,1491.2522807836533,None,1492.6695809364319,None,./data/Subject_04/Session_01/Exp_data/2020_Jul_11_1212/rec_QA_run_02_block_001_trial_002.wav,04,01,Norwegian,B1,True,False,True,False,False,True,True,True,True,True,True,True,No,2,No,No,No,No,2020_Jul_11_1212,nibs_stage_1,3.2.3,60.001688051030634,
2,0,2,0,,,,,1,0,1,0,3,0,3,0,,,,,,,,,,,,,,,,,,,,,,,,,,,,,,,,,,,,,,,,,,,,,,,,,Listen to the question and speak out your answer!,1495.7025928497314,None,1495.6674970626832,1497.7025637626648,Ich habe das Bild an die Wand gehängt. ,gehängt,1497.0858548402787,None,1499.6195877313614,None,1512.2866488218308,1513.3033969402313,1513.7034077644348,None,./data/Subject_04/Session_01/Exp_data/2020_Jul_11_1212/rec_QA_run_02_block_001_trial_003.wav,04,01,Norwegian,B1,True,False,True,False,False,True,True,True,True,True,True,True,No,2,No,No,No,No,2020_Jul_11_1212,nibs_stage_1,3.2.3,60.001688051030634,
2,0,2,0,,,,,1,0,1,0,4,0,4,0,,,,,,,,,,,,,,,,,,,,,,,,,,,,,,,,,,,,,,,,,,,,,,,,,Listen to the question and speak out your answer!,1516.7369449138641,None,1516.7017768859864,1518.7369787693024,Das Brot schmeckt lecker. ,schmeckt,1518.120289874077,None,1520.1203857183457,None,1533.3043857336045,1534.32111287117,1534.7211408615112,None,./data/Subject_04/Session_01/Exp_data/2020_Jul_11_1212/rec_QA_run_02_block_001_trial_004.wav,04,01,Norwegian,B1,True,False,True,False,False,True,True,True,True,True,True,True,No,2,No,No,No,No,2020_Jul_11_1212,nibs_stage_1,3.2.3,60.001688051030634,
2,0,2,0,,,,,1,0,1,0,5,0,5,0,,,,,,,,,,,,,,,,,,,,,,,,,,,,,,,,,,,,,,,,,,,,,,,,,Listen to the question and speak out your answer!,1537.7897028923035,None,1537.7694988012315,1539.7880799770355,Die Hausfrau muss jeden Tag Lebensmittel einkaufen.,einkaufen,1539.1713498353959,1542.3886148929596,1542.7382016897202,1543.7550098896027,1554.372146677971,None,1555.7888689041138,None,./data/Subject_04/Session_01/Exp_data/2020_Jul_11_1212/rec_QA_run_02_block_001_trial_005.wav,04,01,Norwegian,B1,True,False,True,False,False,True,True,True,True,True,True,True,No,2,No,No,No,No,2020_Jul_11_1212,nibs_stage_1,3.2.3,60.001688051030634,
2,0,2,0,,,,,1,0,1,0,6,0,6,0,,,,,,,,,,,,,,,,,,,,,,,,,,,,,,,,,,,,,,,,,,,,,,,,,Listen to the question and speak out your answer!,1558.8230078220367,None,1558.787260913849,1560.8225469589233,Für dieses Produkt wird keine technische Unterstützung mehr angeboten.,angeboten,1560.1724127054215,1564.3226459026337,1564.739603829384,None,1575.3731787919999,1576.3899347782135,1576.7902328968048,None,./data/Subject_04/Session_01/Exp_data/2020_Jul_11_1212/rec_QA_run_02_block_001_trial_006.wav,04,01,Norwegian,B1,True,False,True,False,False,True,True,True,True,True,True,True,No,2,No,No,No,No,2020_Jul_11_1212,nibs_stage_1,3.2.3,60.001688051030634,
2,0,2,0,,,,,1,0,1,0,7,0,7,0,,,,,,,,,,,,,,,,,,,,,,,,,,,,,,,,,,,,,,,,,,,,,,,,,Listen to the question and speak out your answer!,1579.8583178520203,None,1579.8383128404619,1581.8568887710571,"Sie hat Schlafmittel genommen, damit sie gut schlafen kann.",schlafen,1581.2401867628098,None,1585.207032752037,None,1596.4410646677018,None,1597.8577008247375,None,./data/Subject_04/Session_01/Exp_data/2020_Jul_11_1212/rec_QA_run_02_block_001_trial_007.wav,04,01,Norwegian,B1,True,False,True,False,False,True,True,True,True,True,True,True,No,2,No,No,No,No,2020_Jul_11_1212,nibs_stage_1,3.2.3,60.001688051030634,
2,0,2,0,,,,,1,0,1,0,8,0,8,0,,,,,,,,,,,,,,,,,,,,,,,,,,,,,,,,,,,,,,,,,,,,,,,,,Listen to the question and speak out your answer!,1600.9085128307343,None,1600.8894239902497,1602.9079937934875,Die Verkäuferin beantwortete meine Fragen und konnte mich beraten.,beraten,1602.2912588834763,None,1606.7914787054062,None,1617.4920438051224,1618.5087859630585,1618.9087989330292,None,./data/Subject_04/Session_01/Exp_data/2020_Jul_11_1212/rec_QA_run_02_block_001_trial_008.wav,04,01,Norwegian,B1,True,False,True,False,False,True,True,True,True,True,True,True,No,2,No,No,No,No,2020_Jul_11_1212,nibs_stage_1,3.2.3,60.001688051030634,
2,0,2,0,,,,,1,0,1,0,9,0,9,0,,,,,,,,,,,,,,,,,,,,,,,,,,,,,,,,,,,,,,,,,,,,,,,,,Listen to the question and speak out your answer!,1621.9762969017029,None,1621.9404958724976,1623.975811958313,Die Milch riecht verdorben.,riecht,1623.3256417036057,1624.97576379776,1625.3592007875443,1626.3758289813995,1638.526428771019,None,1639.9431819915771,None,./data/Subject_04/Session_01/Exp_data/2020_Jul_11_1212/rec_QA_run_02_block_001_trial_009.wav,04,01,Norwegian,B1,True,False,True,False,False,True,True,True,True,True,True,True,No,2,No,No,No,No,2020_Jul_11_1212,nibs_stage_1,3.2.3,60.001688051030634,
2,0,2,0,,,,,1,0,1,0,10,0,10,0,,,,,,,,,,,,,,,,,,,,,,,,,,,,,,,,,,,,,,,,,,,,,,,,,Listen to the question and speak out your answer!,1642.993677854538,None,1642.9748949050904,1644.9934859275818,Man kann sich Bilder und Videos von anderen Menschen auf Instagram anschauen.,anschauen,1644.3767367124558,1648.8937408924103,1649.2436626672745,1650.260414838791,1659.5775557279587,1660.5942578315735,1660.9942708015442,None,./data/Subject_04/Session_01/Exp_data/2020_Jul_11_1212/rec_QA_run_02_block_001_trial_010.wav,04,01,Norwegian,B1,True,False,True,False,False,True,True,True,True,True,True,True,No,2,No,No,No,No,2020_Jul_11_1212,nibs_stage_1,3.2.3,60.001688051030634,
2,0,2,0,,,,,1,0,1,0,11,0,11,0,,,,,,,,,,,,,,,,,,,,,,,,,,,,,,,,,,,,,,,,,,,,,,,,,Listen to the question and speak out your answer!,1664.0614168643951,None,1664.0426327943803,1666.061105966568,Ich gratuliere dir zum Bestehen dieser schwierigen Prüfung.,gratuliere,1665.4444807291031,None,1669.278006863594,None,1680.6452537298203,1681.6620028018951,1682.0620369911194,None,./data/Subject_04/Session_01/Exp_data/2020_Jul_11_1212/rec_QA_run_02_block_001_trial_011.wav,04,01,Norwegian,B1,True,False,True,False,False,True,True,True,True,True,True,True,No,2,No,No,No,No,2020_Jul_11_1212,nibs_stage_1,3.2.3,60.001688051030634,
2,0,2,0,,,,,1,0,1,0,12,0,12,0,,,,,,,,,,,,,,,,,,,,,,,,,,,,,,,,,,,,,,,,,,,,,,,,,Listen to the question and speak out your answer!,1685.0961859226227,None,1685.0604199409486,1687.095607995987,"Ich wusste nicht, ob ich lachen oder weinen sollte.",lachen,1686.478816819191,1689.4290838241577,1689.8124008893967,None,1701.6796718358994,None,1703.096477985382,None,./data/Subject_04/Session_01/Exp_data/2020_Jul_11_1212/rec_QA_run_02_block_001_trial_012.wav,04,01,Norwegian,B1,True,False,True,False,False,True,True,True,True,True,True,True,No,2,No,No,No,No,2020_Jul_11_1212,nibs_stage_1,3.2.3,60.001688051030634,
2,0,2,0,,,,,1,0,1,0,13,0,13,0,,,,,,,,,,,,,,,,,,,,,,,,,,,,,,,,,,,,,,,,,,,,,,,,,Listen to the question and speak out your answer!,1706.130010843277,None,1706.0948218345643,1708.130019903183,Aufgrund der globalen Erwärmung werden die Häuser der Inselbewohner im Meer versinken.,versinken,1707.5133016824723,1712.4636437892914,1712.8469148397446,None,1722.714119744301,1723.7308378219604,1724.1310148239136,None,./data/Subject_04/Session_01/Exp_data/2020_Jul_11_1212/rec_QA_run_02_block_001_trial_013.wav,04,01,Norwegian,B1,True,False,True,False,False,True,True,True,True,True,True,True,No,2,No,No,No,No,2020_Jul_11_1212,nibs_stage_1,3.2.3,60.001688051030634,
2,0,2,0,,,,,1,0,1,0,14,0,14,0,,,,,,,,,,,,,,,,,,,,,,,,,,,,,,,,,,,,,,,,,,,,,,,,,Listen to the question and speak out your answer!,1727.14834690094,None,1727.1125519990921,1729.1477799415588,Er legte das Buch auf den Tisch.,legte,1728.4977217435837,None,1730.9645066976548,None,1743.698491883278,None,1745.115285873413,None,./data/Subject_04/Session_01/Exp_data/2020_Jul_11_1212/rec_QA_run_02_block_001_trial_014.wav,04,01,Norwegian,B1,True,False,True,False,False,True,True,True,True,True,True,True,No,2,No,No,No,No,2020_Jul_11_1212,nibs_stage_1,3.2.3,60.001688051030634,
2,0,2,0,,,,,1,0,1,0,15,0,15,0,,,,,,,,,,,,,,,,,,,,,,,,,,,,,,,,,,,,,,,,,,,,,,,,,Listen to the question and speak out your answer!,1748.1827368736267,None,1748.147069835663,1750.1822748184204,Mit dem neuen System können wir Dokumente effizienter organisieren.,organisieren,1749.5654638528824,None,1754.0990508317948,None,1764.766225886345,None,1766.1830129623413,None,./data/Subject_04/Session_01/Exp_data/2020_Jul_11_1212/rec_QA_run_02_block_001_trial_015.wav,04,01,Norwegian,B1,True,False,True,False,False,True,True,True,True,True,True,True,No,2,No,No,No,No,2020_Jul_11_1212,nibs_stage_1,3.2.3,60.001688051030634,
2,0,2,0,,,,,1,0,1,0,16,0,16,0,,,,,,,,,,,,,,,,,,,,,,,,,,,,,,,,,,,,,,,,,,,,,,,,,Listen to the question and speak out your answer!,1769.2000007629395,None,1769.1647191762925,1771.1999208927155,Meine Uhr zeigt die aktuelle Uhrzeit in Berlin und New York an.,zeigt,1770.5498767614365,None,1774.9167466878891,None,1785.750944685936,None,1787.167401790619,None,./data/Subject_04/Session_01/Exp_data/2020_Jul_11_1212/rec_QA_run_02_block_001_trial_016.wav,04,01,Norwegian,B1,True,False,True,False,False,True,True,True,True,True,True,True,No,2,No,No,No,No,2020_Jul_11_1212,nibs_stage_1,3.2.3,60.001688051030634,
2,0,2,0,,,,,1,0,1,0,17,0,17,0,,,,,,,,,,,,,,,,,,,,,,,,,,,,,,,,,,,,,,,,,,,,,,,,,Listen to the question and speak out your answer!,1790.2348818778992,None,1790.199057006836,1792.2343349456787,Simon hat riesige Bilder gemalt.,gemalt,1791.6177438020707,None,1794.2177487134934,1795.234778881073,1806.8183878183365,None,1808.235167980194,None,./data/Subject_04/Session_01/Exp_data/2020_Jul_11_1212/rec_QA_run_02_block_001_trial_017.wav,04,01,Norwegian,B1,True,False,True,False,False,True,True,True,True,True,True,True,No,2,No,No,No,No,2020_Jul_11_1212,nibs_stage_1,3.2.3,60.001688051030634,
2,0,2,0,,,,,1,0,1,0,18,0,18,0,,,,,,,,,,,,,,,,,,,,,,,,,,,,,,,,,,,,,,,,,,,,,,,,,Listen to the question and speak out your answer!,1811.2694289684296,None,1811.2501599550249,1813.2687139511108,Der Sturm entlaubte alle Bäume in unserem Garten.,entlaubte,1812.6520338773728,1815.8688838481903,1816.252202820778,None,1827.852832865715,None,1829.2695398330688,None,./data/Subject_04/Session_01/Exp_data/2020_Jul_11_1212/rec_QA_run_02_block_001_trial_018.wav,04,01,Norwegian,B1,True,False,True,False,False,True,True,True,True,True,True,True,No,2,No,No,No,No,2020_Jul_11_1212,nibs_stage_1,3.2.3,60.001688051030634,
2,0,2,0,,,,,1,0,1,0,19,0,19,0,,,,,,,,,,,,,,,,,,,,,,,,,,,,,,,,,,,,,,,,,,,,,,,,,Listen to the question and speak out your answer!,1832.3203828334808,None,1832.2848558187486,1834.3198227882385,"Wenn ich mich gestresst fühle, muss ich mich selbst daran erinnern, ruhig zu bleiben.",erinnern,1833.669696879387,1838.3867049217224,1838.7700818300248,None,1848.8705547571183,None,1850.2873327732086,None,./data/Subject_04/Session_01/Exp_data/2020_Jul_11_1212/rec_QA_run_02_block_001_trial_019.wav,04,01,Norwegian,B1,True,False,True,False,False,True,True,True,True,True,True,True,No,2,No,No,No,No,2020_Jul_11_1212,nibs_stage_1,3.2.3,60.001688051030634,
2,0,2,0,,,,,1,0,1,0,20,0,20,0,,,,,,,,,,,,,,,,,,,,,,,,,,,,,,,,,,,,,,,,,,,,,,,,,Listen to the question and speak out your answer!,1853.354791879654,None,1853.3190168380738,1855.3542487621307,Briefe und Pakete verschickt man mit der Post.,verschickt,1854.7377918481827,1857.7210459709167,1858.0710378408432,None,1869.938320708275,None,1871.3550548553467,None,./data/Subject_04/Session_01/Exp_data/2020_Jul_11_1212/rec_QA_run_02_block_001_trial_020.wav,04,01,Norwegian,B1,True,False,True,False,False,True,True,True,True,True,True,True,No,2,No,No,No,No,2020_Jul_11_1212,nibs_stage_1,3.2.3,60.001688051030634,
2,0,2,0,,,,,1,0,1,0,21,0,21,0,,,,,,,,,,,,,,,,,,,,,,,,,,,,,,,,,,,,,,,,,,,,,,,,,Listen to the question and speak out your answer!,1874.3895428180695,None,1874.3700868844987,1876.3886458873749,Ohne das Glas kann ich nicht lesen.,lesen,1875.771940779686,None,1878.2720468759537,1879.2887778282166,1890.9727247476578,None,1892.3894109725952,None,./data/Subject_04/Session_01/Exp_data/2020_Jul_11_1212/rec_QA_run_02_block_001_trial_021.wav,04,01,Norwegian,B1,True,False,True,False,False,True,True,True,True,True,True,True,No,2,No,No,No,No,2020_Jul_11_1212,nibs_stage_1,3.2.3,60.001688051030634,
2,0,2,0,,,,,1,0,1,0,22,0,22,0,,,,,,,,,,,,,,,,,,,,,,,,,,,,,,,,,,,,,,,,,,,,,,,,,Listen to the question and speak out your answer!,1895.424694776535,None,1895.404503798485,1897.4230699539185,Sam ist ein ehrlicher Mann und sagt immer die Wahrheit.,sagt,1896.8063498258591,1900.023333787918,1900.3733137369156,1901.38991689682,1911.9904368638993,1913.0071399211884,1913.4071998596191,None,./data/Subject_04/Session_01/Exp_data/2020_Jul_11_1212/rec_QA_run_02_block_001_trial_022.wav,04,01,Norwegian,B1,True,False,True,False,False,True,True,True,True,True,True,True,No,2,No,No,No,No,2020_Jul_11_1212,nibs_stage_1,3.2.3,60.001688051030634,
2,0,2,0,,,,,1,0,1,0,23,0,23,0,,,,,,,,,,,,,,,,,,,,,,,,,,,,,,,,,,,,,,,,,,,,,,,,,Listen to the question and speak out your answer!,1916.4913549423218,None,1916.4556028604509,1918.490797996521,Der ganze Kurs bestand die Prüfung.,bestand,1917.840833735466,None,1920.5075627088547,1921.5243318080902,1933.0418308496476,1934.0582728385925,1934.4582839012146,None,./data/Subject_04/Session_01/Exp_data/2020_Jul_11_1212/rec_QA_run_02_block_001_trial_023.wav,04,01,Norwegian,B1,True,False,True,False,False,True,True,True,True,True,True,True,No,2,No,No,No,No,2020_Jul_11_1212,nibs_stage_1,3.2.3,60.001688051030634,
2,0,2,0,,,,,1,0,1,0,24,0,24,0,,,,,,,,,,,,,,,,,,,,,,,,,,,,,,,,,,,,,,,,,,,,,,,,,Listen to the question and speak out your answer!,1937.5258119106293,None,1937.5065848588945,1939.5254337787628,Das Huhn legt jeden Tag ein Ei.,legt,1938.9086168527604,1941.0586128234863,1941.4420216798783,None,1954.1092837572098,None,1955.526057958603,None,./data/Subject_04/Session_01/Exp_data/2020_Jul_11_1212/rec_QA_run_02_block_001_trial_024.wav,04,01,Norwegian,B1,True,False,True,False,False,True,True,True,True,True,True,True,No,2,No,No,No,No,2020_Jul_11_1212,nibs_stage_1,3.2.3,60.001688051030634,
