run.thisRepN,run.thisTrialN,run.thisN,run.thisIndex,artifact_trial.thisRepN,artifact_trial.thisTrialN,artifact_trial.thisN,artifact_trial.thisIndex,QA_block.thisRepN,QA_block.thisTrialN,QA_block.thisN,QA_block.thisIndex,QA_trial.thisRepN,QA_trial.thisTrialN,QA_trial.thisN,QA_trial.thisIndex,fade_in_text.text,fade_in_text.started,fade_in_text.stopped,Artifact_intro_title.started,Artifact_intro_title.stopped,Artifact_intro_text.text,Artifact_intro_text.started,Artifact_intro_text.stopped,Artifact_intro_audio.started,Artifact_intro_audio.stopped,Artifact_intro_cont.started,Artifact_intro_cont.stopped,Artifact_rec_text.text,Artifact_rec_text.started,Artifact_rec_text.stopped,Artifact_rec_beep_hint.started,Artifact_rec_beep_hint.stopped,Artifact_rec_action.started,Artifact_rec_action.stopped,Artifact_rec_beep_start.started,Artifact_rec_beep_start.stopped,Artifact_rec_recording.started,Artifact_rec_recording.stopped,Artifact_rec_beep_end.started,Artifact_rec_beep_end.stopped,Artifact_rec_break.started,Artifact_rec_break.stopped,RS_intro_title.started,RS_intro_title.stopped,RS_intro_text.text,RS_intro_text.started,RS_intro_text.stopped,RS_intro_audio.started,RS_intro_audio.stopped,RS_rec_text.text,RS_rec_text.started,RS_rec_text.stopped,Pause_cont.started,Pause_cont.stopped,QA_intro_title.started,QA_intro_title.stopped,QA_intro_text.text,QA_intro_text.started,QA_intro_text.stopped,QA_intro_audio.started,QA_intro_audio.stopped,QA_intro_cont.started,QA_intro_cont.stopped,QA_rec_text.text,QA_rec_text.started,QA_rec_text.stopped,QA_rec_beep_hint.started,QA_rec_beep_hint.stopped,QA_rec_question.sen_text,QA_rec_question.cen_text,QA_rec_question.started,QA_rec_question.stopped,QA_rec_beep_start.started,QA_rec_beep_start.stopped,QA_rec_beep_end.started,QA_rec_beep_end.stopped,QA_rec_break.started,QA_rec_break.stopped,filename,fade_out_text.text,fade_out_text.started,fade_out_text.stopped,participant,session,First language,German level,Full_screen,Instruction,Intro,Artifact,Cali_pre,Fade_in_out,Artifact_within,Resting_State,QA,Pause,Cali_post,End,Breakpoint_Cali_pre_trial,Breakpoint_Run,Breakpoint_RS_block,Breakpoint_QA_block,Breakpoint_QA_trial,Breakpoint_Cali_post_trial,date,expName,psychopyVersion,frameRate,
2,0,2,0,0,0,0,0,,,,,,,,,Please remain seated until further instruction via the earphone.,66.26701092720032,None,68.30053281784058,None,"  - Task: Artifacts collection   
  - Please follow audio instruction              
",68.30053281784058,None,68.28469979763031,None,94.6685049533844,None,,96.70201396942139,None,96.68619382381439,98.68538284301758,98.08544909954071,None,101.48546898365021,102.48558402061462,102.8856109380722,112.88613796234131,113.28616297245026,None,114.68626284599304,115.68633699417114,,,,,,,,,,,,,,,,,,,,,,,,,,,,,,,,,,,,,,,,,02,01,English,A2,True,False,True,False,False,True,True,True,True,True,True,True,No,2,No,No,No,No,2020_Jul_05_1131,nibs_stage_1,3.2.3,60.00065804249524,
2,0,2,0,1,0,1,0,,,,,,,,,,,,,,,,,,,,,,118.71984696388245,None,118.7040559053421,120.70322394371033,120.08652794361115,None,123.48681914806366,None,124.88673293590546,134.887610912323,135.28753793239594,136.2875509262085,136.68753099441528,137.68768095970154,,,,,,,,,,,,,,,,,,,,,,,,,,,,,,,,,,,,,,,,,02,01,English,A2,True,False,True,False,False,True,True,True,True,True,True,True,No,2,No,No,No,No,2020_Jul_05_1131,nibs_stage_1,3.2.3,60.00065804249524,
2,0,2,0,2,0,2,0,,,,,,,,,,,,,,,,,,,,,,140.7378158569336,None,140.7220457792282,142.72123384475708,142.1045309305191,None,145.50491607189178,None,146.90484416484833,156.9055609703064,157.3054860830307,None,158.70546984672546,159.70548796653748,,,,,,,,,,,,,,,,,,,,,,,,,,,,,,,,,,,,,,,,,02,01,English,A2,True,False,True,False,False,True,True,True,True,True,True,True,No,2,No,No,No,No,2020_Jul_05_1131,nibs_stage_1,3.2.3,60.00065804249524,
2,0,2,0,3,0,3,0,,,,,,,,,,,,,,,,,,,,,,162.7561309337616,None,162.73983776569366,164.73897290229797,164.12237894535065,None,167.52256214618683,None,168.92276203632355,178.9232029914856,179.3232001066208,180.32322788238525,180.7233738899231,181.7232949733734,,,,,,,,,,,,,,,,,,,,,,,,,,,,,,,,,,,,,,,,,02,01,English,A2,True,False,True,False,False,True,True,True,True,True,True,True,No,2,No,No,No,No,2020_Jul_05_1131,nibs_stage_1,3.2.3,60.00065804249524,
2,0,2,0,4,0,4,0,,,,,,,,,,,,,,,,,,,,,,184.7742428779602,None,184.75771486759186,186.75723695755005,186.14012396335602,None,189.5404270887375,190.5404510498047,190.94042098522186,200.94095396995544,201.34105813503265,202.34120988845825,202.7410500049591,203.74113488197327,,,,,,,,,,,,,,,,,,,,,,,,,,,,,,,,,,,,,,,,,02,01,English,A2,True,False,True,False,False,True,True,True,True,True,True,True,No,2,No,No,No,No,2020_Jul_05_1131,nibs_stage_1,3.2.3,60.00065804249524,
2,0,2,0,5,0,5,0,,,,,,,,,,,,,,,,,,,,,,206.7913088798523,None,206.77558171749115,208.7747368812561,208.1579419374466,None,211.55835711956024,212.5582628250122,212.95826494693756,222.9588189125061,223.35882699489594,224.3588089942932,224.75891089439392,225.75893783569336,,,,,,,,,,,,,,,,,,,,,,,,,,,,,,,,,,,,,,,,,02,01,English,A2,True,False,True,False,False,True,True,True,True,True,True,True,No,2,No,No,No,No,2020_Jul_05_1131,nibs_stage_1,3.2.3,60.00065804249524,
2,0,2,0,6,0,6,0,,,,,,,,,,,,,,,,,,,,,,228.80988597869873,None,228.79346477985382,230.79265689849854,230.17586505413055,None,233.5760110616684,None,234.97626292705536,244.9766240119934,245.37664902210236,None,246.77685403823853,247.77674293518066,,,,,,,,,,,,,,,,,,,,,,,,,,,,,,,,,,,,,,,,,02,01,English,A2,True,False,True,False,False,True,True,True,True,True,True,True,No,2,No,No,No,No,2020_Jul_05_1131,nibs_stage_1,3.2.3,60.00065804249524,
2,0,2,0,7,0,7,0,,,,,,,,,,,,,,,,,,,,,,250.8268439769745,None,250.8112007379532,252.8103950023651,252.19361793994904,255.19382691383362,255.59386909008026,None,256.9939399957657,266.9944198131561,267.39447700977325,None,268.79444098472595,269.7945740222931,,,,,,,,,,,,,,,,,,,,,,,,,,,,,,,,,,,,,,,,,02,01,English,A2,True,False,True,False,False,True,True,True,True,True,True,True,No,2,No,No,No,No,2020_Jul_05_1131,nibs_stage_1,3.2.3,60.00065804249524,
2,0,2,0,8,0,8,0,,,,,,,,,,,,,,,,,,,,,,272.84473991394043,None,272.8289827108383,274.828547000885,274.21163403987885,277.2118899822235,277.61183393001556,278.61171984672546,279.0117529630661,289.01242303848267,289.41228115558624,290.41236686706543,290.812381029129,291.8124530315399,,,,,,,,,,,,,,,,,,,,,,,,,,,,,,,,,,,,,,,,,02,01,English,A2,True,False,True,False,False,True,True,True,True,True,True,True,No,2,No,No,No,No,2020_Jul_05_1131,nibs_stage_1,3.2.3,60.00065804249524,
2,0,2,0,9,0,9,0,,,,,,,,,,,,,,,,,,,,,,294.8625500202179,None,294.84704887866974,296.84642696380615,296.2296789884567,299.2294728755951,299.6461580991745,None,301.02973115444183,311.0304539203644,311.42985904216766,None,312.84674286842346,313.8470058441162,,,,,,,,,,,,,,,,,,,,,,,,,,,,,,,,,,,,,,,,,02,01,English,A2,True,False,True,False,False,True,True,True,True,True,True,True,No,2,No,No,No,No,2020_Jul_05_1131,nibs_stage_1,3.2.3,60.00065804249524,
2,0,2,0,10,0,10,0,,,,,,,,,,,,,,,,,,,,,,316.8802478313446,None,316.8647598028183,318.8640568256378,318.2473191022873,None,321.64732110500336,322.64727902412415,323.0473769903183,333.0479118824005,333.447949051857,None,334.86469197273254,335.864737033844,,,,,,,,,,,,,,,,,,,,,,,,,,,,,,,,,,,,,,,,,02,01,English,A2,True,False,True,False,False,True,True,True,True,True,True,True,No,2,No,No,No,No,2020_Jul_05_1131,nibs_stage_1,3.2.3,60.00065804249524,
2,0,2,0,11,0,11,0,,,,,,,,,,,,,,,,,,,,,,338.8980848789215,None,338.882838845253,340.89825987815857,340.2653349637985,None,343.6648350954056,344.66558504104614,345.06528294086456,355.06554102897644,355.46618807315826,None,356.86612486839294,357.86567783355713,,,,,,,,,,,,,,,,,,,,,,,,,,,,,,,,,,,,,,,,,02,01,English,A2,True,False,True,False,False,True,True,True,True,True,True,True,No,2,No,No,No,No,2020_Jul_05_1131,nibs_stage_1,3.2.3,60.00065804249524,
2,0,2,0,12,0,12,0,,,,,,,,,,,,,,,,,,,,,,360.915904045105,None,360.90040481090546,362.9159119129181,362.28287613391876,365.2827339172363,365.6827689409256,366.6828029155731,367.08275401592255,377.08356285095215,377.48374593257904,None,378.88345885276794,379.8834810256958,,,,,,,,,,,,,,,,,,,,,,,,,,,,,,,,,,,,,,,,,02,01,English,A2,True,False,True,False,False,True,True,True,True,True,True,True,No,2,No,No,No,No,2020_Jul_05_1131,nibs_stage_1,3.2.3,60.00065804249524,
2,0,2,0,13,0,13,0,,,,,,,,,,,,,,,,,,,,,,382.9336450099945,None,382.9179528951645,384.9170079231262,384.3004001379013,None,387.71722304821014,None,389.11732399463654,399.1344919204712,399.5177720785141,None,400.93457889556885,401.96797490119934,,,,,,,,,,,,,,,,,,,,,,,,,,,,,,,,,,,,,,,,,02,01,English,A2,True,False,True,False,False,True,True,True,True,True,True,True,No,2,No,No,No,No,2020_Jul_05_1131,nibs_stage_1,3.2.3,60.00065804249524,
2,0,2,0,14,0,14,0,,,,,,,,,,,,,,,,,,,,,,404.9685859680176,None,404.9523767232895,406.9682049751282,406.351536154747,None,409.75171315670013,None,411.1517850160599,421.1689808368683,421.5524870157242,None,422.9692769050598,424.00243401527405,,,,,,,,,,,,,,,,,,,,,,,,,,,,,,,,,,,,,,,,,02,01,English,A2,True,False,True,False,False,True,True,True,True,True,True,True,No,2,No,No,No,No,2020_Jul_05_1131,nibs_stage_1,3.2.3,60.00065804249524,
2,0,2,0,,,,,0,0,0,0,0,0,0,0,,,,,,,,,,,,,,,,,,,,,,,,,,,,634.4641208648682,None," - Task: Keep seated and relaxed with either      
             opening or closing eyes                  
 - Beep sound with decreasing pitch: Block finish 
",634.4641208648682,None,634.4311068058014,None,"Please keep relaxed and open your eyes.
Note: Blinking is allowed.",657.5312869548798,837.5740089416504,840.9741868972778,None,855.0588839054108,None," - Task: Listen to the question& Speak out answer 
 - Melodious beep sound: Trial start              
 - Silent sound (blank): censored word            
 - Beep sound with increasing pitch: Rec. start   
 - Beep sound with decreasing pitch: Rec. finish  
",855.0588839054108,None,855.0263156890869,None,894.4436800479889,None,Listen to the question and speak out your answer!,897.5275309085846,None,897.4952260255814,899.5272078514099,Man kann die salzige Luft riechen.,riechen,898.9105161428452,900.9275779724121,901.3106471300125,902.3273649215698,914.1113051176071,915.1280798912048,915.5280678272247,None,./data/Subject_02/Session_01/Exp_data/2020_Jul_05_1131/rec_QA_run_02_block_000_trial_000.wav,,,,02,01,English,A2,True,False,True,False,False,True,True,True,True,True,True,True,No,2,No,No,No,No,2020_Jul_05_1131,nibs_stage_1,3.2.3,60.00065804249524,
2,0,2,0,,,,,0,0,0,0,1,0,1,0,,,,,,,,,,,,,,,,,,,,,,,,,,,,,,,,,,,,,,,,,,,,,,,,,Listen to the question and speak out your answer!,918.5455038547516,None,918.5291578769684,920.5449969768524,"Ich habe mich bei einem Kurs angemeldet, um Deutsch zu lernen.",angemeldet,919.9283031225204,923.4451160430908,923.8284741640091,None,935.1291710138321,None,936.5458219051361,None,./data/Subject_02/Session_01/Exp_data/2020_Jul_05_1131/rec_QA_run_02_block_000_trial_001.wav,,,,02,01,English,A2,True,False,True,False,False,True,True,True,True,True,True,True,No,2,No,No,No,No,2020_Jul_05_1131,nibs_stage_1,3.2.3,60.00065804249524,
2,0,2,0,,,,,0,0,0,0,2,0,2,0,,,,,,,,,,,,,,,,,,,,,,,,,,,,,,,,,,,,,,,,,,,,,,,,,Listen to the question and speak out your answer!,939.6127560138702,None,939.5802009105682,941.6126759052277,"Er lieh mir Geld, ohne Zinsen zu verlangen.",lieh,940.9960280656815,943.6461708545685,944.0295630693436,945.0462429523468,956.196900010109,None,957.6135590076447,None,./data/Subject_02/Session_01/Exp_data/2020_Jul_05_1131/rec_QA_run_02_block_000_trial_002.wav,,,,02,01,English,A2,True,False,True,False,False,True,True,True,True,True,True,True,No,2,No,No,No,No,2020_Jul_05_1131,nibs_stage_1,3.2.3,60.00065804249524,
2,0,2,0,,,,,0,0,0,0,3,0,3,0,,,,,,,,,,,,,,,,,,,,,,,,,,,,,,,,,,,,,,,,,,,,,,,,,Listen to the question and speak out your answer!,960.6485879421234,None,960.6312960386276,962.6471288204193,Die Absolventen feiern ihren erfolgreichen Abschluss an der Universität.,feiern,962.0304559469223,None,966.9307049512863,None,977.23115503788,None,978.6480038166046,None,./data/Subject_02/Session_01/Exp_data/2020_Jul_05_1131/rec_QA_run_02_block_000_trial_003.wav,,,,02,01,English,A2,True,False,True,False,False,True,True,True,True,True,True,True,No,2,No,No,No,No,2020_Jul_05_1131,nibs_stage_1,3.2.3,60.00065804249524,
2,0,2,0,,,,,0,0,0,0,4,0,4,0,,,,,,,,,,,,,,,,,,,,,,,,,,,,,,,,,,,,,,,,,,,,,,,,,Listen to the question and speak out your answer!,981.7155258655548,None,981.6824948787689,983.7148928642273,"Meine Fenster sind schmutzig, ich muss sie putzen.",putzen,983.0982061624527,None,986.3317240476608,None,998.2989701032639,999.3157188892365,999.71577501297,None,./data/Subject_02/Session_01/Exp_data/2020_Jul_05_1131/rec_QA_run_02_block_000_trial_004.wav,,,,02,01,English,A2,True,False,True,False,False,True,True,True,True,True,True,True,No,2,No,No,No,No,2020_Jul_05_1131,nibs_stage_1,3.2.3,60.00065804249524,
2,0,2,0,,,,,0,0,0,0,5,0,5,0,,,,,,,,,,,,,,,,,,,,,,,,,,,,,,,,,,,,,,,,,,,,,,,,,Listen to the question and speak out your answer!,1002.7498588562012,None,1002.7168588638306,1004.7494230270386,"Wenn es kalt wird, muss ich einen warmen Pullover tragen.",tragen,1004.1326459646225,1007.4496018886566,1007.7995980978012,None,1019.3334180116653,None,1020.7502558231354,None,./data/Subject_02/Session_01/Exp_data/2020_Jul_05_1131/rec_QA_run_02_block_000_trial_005.wav,,,,02,01,English,A2,True,False,True,False,False,True,True,True,True,True,True,True,No,2,No,No,No,No,2020_Jul_05_1131,nibs_stage_1,3.2.3,60.00065804249524,
2,0,2,0,,,,,0,0,0,0,6,0,6,0,,,,,,,,,,,,,,,,,,,,,,,,,,,,,,,,,,,,,,,,,,,,,,,,,Listen to the question and speak out your answer!,1023.7854039669037,None,1023.76791203022,1025.7837510108948,Alle Wege führen nach Rom.,führen,1025.1670421361923,None,1027.5338560342789,None,1040.3679331541061,None,1041.784590959549,None,./data/Subject_02/Session_01/Exp_data/2020_Jul_05_1131/rec_QA_run_02_block_000_trial_006.wav,,,,02,01,English,A2,True,False,True,False,False,True,True,True,True,True,True,True,No,2,No,No,No,No,2020_Jul_05_1131,nibs_stage_1,3.2.3,60.00065804249524,
2,0,2,0,,,,,0,0,0,0,7,0,7,0,,,,,,,,,,,,,,,,,,,,,,,,,,,,,,,,,,,,,,,,,,,,,,,,,Listen to the question and speak out your answer!,1044.8351998329163,None,1044.819083929062,1046.8348388671875,"Ich muss mich bemühen, das Ziel des Projektes zu erreichen.",erreichen,1046.218225121498,1049.8352508544922,1050.2183550596237,None,1061.4190281629562,None,1062.8356869220734,None,./data/Subject_02/Session_01/Exp_data/2020_Jul_05_1131/rec_QA_run_02_block_000_trial_007.wav,,,,02,01,English,A2,True,False,True,False,False,True,True,True,True,True,True,True,No,2,No,No,No,No,2020_Jul_05_1131,nibs_stage_1,3.2.3,60.00065804249524,
2,0,2,0,,,,,0,0,0,0,8,0,8,0,,,,,,,,,,,,,,,,,,,,,,,,,,,,,,,,,,,,,,,,,,,,,,,,,Listen to the question and speak out your answer!,1065.9025719165802,None,1065.8701620101929,1067.902596950531,"Ich hoffe, dass ich und meine Tante gute Freunde für immer bleiben können.",hoffe,1067.285912156105,None,1071.7528089284897,None,1082.4866479635239,None,1083.9034249782562,None,./data/Subject_02/Session_01/Exp_data/2020_Jul_05_1131/rec_QA_run_02_block_000_trial_008.wav,,,,02,01,English,A2,True,False,True,False,False,True,True,True,True,True,True,True,No,2,No,No,No,No,2020_Jul_05_1131,nibs_stage_1,3.2.3,60.00065804249524,
2,0,2,0,,,,,0,0,0,0,9,0,9,0,,,,,,,,,,,,,,,,,,,,,,,,,,,,,,,,,,,,,,,,,,,,,,,,,Listen to the question and speak out your answer!,1086.953696012497,None,1086.9211879968643,1088.953733921051,Während meines Urlaubs werde ich nach China und Japan reisen.,reisen,1088.337121129036,1092.1208338737488,1092.503867983818,1093.5205919742584,1103.5378431081772,None,1104.954449892044,None,./data/Subject_02/Session_01/Exp_data/2020_Jul_05_1131/rec_QA_run_02_block_000_trial_009.wav,,,,02,01,English,A2,True,False,True,False,False,True,True,True,True,True,True,True,No,2,No,No,No,No,2020_Jul_05_1131,nibs_stage_1,3.2.3,60.00065804249524,
2,0,2,0,,,,,0,0,0,0,10,0,10,0,,,,,,,,,,,,,,,,,,,,,,,,,,,,,,,,,,,,,,,,,,,,,,,,,Listen to the question and speak out your answer!,1107.9902498722076,None,1107.9723690748215,1109.988126039505,"Ich empfehle dieses Buch, weil es sehr gut ist.",empfehle,1109.3715380430222,1112.3215718269348,1112.7050491571426,None,1124.5722080469131,None,1125.9889359474182,None,./data/Subject_02/Session_01/Exp_data/2020_Jul_05_1131/rec_QA_run_02_block_000_trial_010.wav,,,,02,01,English,A2,True,False,True,False,False,True,True,True,True,True,True,True,No,2,No,No,No,No,2020_Jul_05_1131,nibs_stage_1,3.2.3,60.00065804249524,
2,0,2,0,,,,,0,0,0,0,11,0,11,0,,,,,,,,,,,,,,,,,,,,,,,,,,,,,,,,,,,,,,,,,,,,,,,,,Listen to the question and speak out your answer!,1129.1391999721527,None,1129.1067544221878,1131.1392300128937,"Ich warte seit drei Tagen auf Sie, wo waren Sie denn?",warte,1130.5225299596786,None,1134.2227209806442,None,1145.7066529989243,None,1147.1233749389648,None,./data/Subject_02/Session_01/Exp_data/2020_Jul_05_1131/rec_QA_run_02_block_000_trial_011.wav,,,,02,01,English,A2,True,False,True,False,False,True,True,True,True,True,True,True,No,2,No,No,No,No,2020_Jul_05_1131,nibs_stage_1,3.2.3,60.00065804249524,
2,0,2,0,,,,,0,0,0,0,12,0,12,0,,,,,,,,,,,,,,,,,,,,,,,,,,,,,,,,,,,,,,,,,,,,,,,,,Listen to the question and speak out your answer!,1150.2069590091705,None,1150.1744660139084,1152.2069778442383,Die kluge Gebäudekonstruktion kann das Haus vor Windschäden schützen.,schützen,1151.556937098503,1155.6738328933716,1156.057179093361,None,1166.7577689886093,None,1168.1746199131012,None,./data/Subject_02/Session_01/Exp_data/2020_Jul_05_1131/rec_QA_run_02_block_000_trial_012.wav,,,,02,01,English,A2,True,False,True,False,False,True,True,True,True,True,True,True,No,2,No,No,No,No,2020_Jul_05_1131,nibs_stage_1,3.2.3,60.00065804249524,
2,0,2,0,,,,,0,0,0,0,13,0,13,0,,,,,,,,,,,,,,,,,,,,,,,,,,,,,,,,,,,,,,,,,,,,,,,,,Listen to the question and speak out your answer!,1171.2419519424438,None,1171.2089259624481,1173.241406917572,"Ich glaube nicht, dass es regnen wird, aber ich werde für alle Fälle einen Schirm mitnehmen.",glaube,1172.6247061491013,1177.774981021881,1178.1250039339066,1179.1417100429535,1187.8254090547562,None,1189.242318868637,None,./data/Subject_02/Session_01/Exp_data/2020_Jul_05_1131/rec_QA_run_02_block_000_trial_013.wav,,,,02,01,English,A2,True,False,True,False,False,True,True,True,True,True,True,True,No,2,No,No,No,No,2020_Jul_05_1131,nibs_stage_1,3.2.3,60.00065804249524,
2,0,2,0,,,,,0,0,0,0,14,0,14,0,,,,,,,,,,,,,,,,,,,,,,,,,,,,,,,,,,,,,,,,,,,,,,,,,Listen to the question and speak out your answer!,1192.2763788700104,None,1192.2433338165283,1194.27592587471,"Morgen will er probieren, ob seine Theorie auch in der Praxis stimmt.",probieren,1193.6257880926132,1197.6094629764557,1197.992693066597,1199.0094120502472,1208.8265920877457,1209.8432838916779,1210.2434339523315,None,./data/Subject_02/Session_01/Exp_data/2020_Jul_05_1131/rec_QA_run_02_block_000_trial_014.wav,,,,02,01,English,A2,True,False,True,False,False,True,True,True,True,True,True,True,No,2,No,No,No,No,2020_Jul_05_1131,nibs_stage_1,3.2.3,60.00065804249524,
2,0,2,0,,,,,0,0,0,0,15,0,15,0,,,,,,,,,,,,,,,,,,,,,,,,,,,,,,,,,,,,,,,,,,,,,,,,,Listen to the question and speak out your answer!,1213.3101589679718,None,1213.2780468463898,1215.3102550506592,Halloween wurde schon von den Kelten gefeiert.,gefeiert,1214.6934829950333,1217.5439858436584,1217.9272819757462,None,1229.8610960245132,None,1231.277753829956,None,./data/Subject_02/Session_01/Exp_data/2020_Jul_05_1131/rec_QA_run_02_block_000_trial_015.wav,,,,02,01,English,A2,True,False,True,False,False,True,True,True,True,True,True,True,No,2,No,No,No,No,2020_Jul_05_1131,nibs_stage_1,3.2.3,60.00065804249524,
2,0,2,0,,,,,0,0,0,0,16,0,16,0,,,,,,,,,,,,,,,,,,,,,,,,,,,,,,,,,,,,,,,,,,,,,,,,,Listen to the question and speak out your answer!,1234.3447999954224,None,1234.3120329380035,1236.3446989059448,"Sie hat den Newsletter abonniert, um weitere Informationen zu erhalten.",abonniert,1235.7279011011124,None,1240.4282640218735,None,1250.9287880659103,None,1252.3454329967499,None,./data/Subject_02/Session_01/Exp_data/2020_Jul_05_1131/rec_QA_run_02_block_000_trial_016.wav,,,,02,01,English,A2,True,False,True,False,False,True,True,True,True,True,True,True,No,2,No,No,No,No,2020_Jul_05_1131,nibs_stage_1,3.2.3,60.00065804249524,
2,0,2,0,,,,,0,0,0,0,17,0,17,0,,,,,,,,,,,,,,,,,,,,,,,,,,,,,,,,,,,,,,,,,,,,,,,,,Listen to the question and speak out your answer!,1255.3807258605957,None,1255.346578836441,1257.3791799545288,Mein älterer Bruder mag Rock spielen und hören.,hören,1256.7625061273575,None,1260.0625859498978,None,1271.9632281064987,1272.9799208641052,1273.3799350261688,None,./data/Subject_02/Session_01/Exp_data/2020_Jul_05_1131/rec_QA_run_02_block_000_trial_017.wav,,,,02,01,English,A2,True,False,True,False,False,True,True,True,True,True,True,True,No,2,No,No,No,No,2020_Jul_05_1131,nibs_stage_1,3.2.3,60.00065804249524,
2,0,2,0,,,,,0,0,0,0,18,0,18,0,,,,,,,,,,,,,,,,,,,,,,,,,,,,,,,,,,,,,,,,,,,,,,,,,Listen to the question and speak out your answer!,1276.4135370254517,None,1276.381024837494,1278.4135899543762,"Ich heiße Tibor, wie ist dein Name?",heiße,1277.7968479394913,1280.213672876358,1280.5637530088425,1281.5803608894348,1292.9643250703812,None,1294.3810458183289,None,./data/Subject_02/Session_01/Exp_data/2020_Jul_05_1131/rec_QA_run_02_block_000_trial_018.wav,,,,02,01,English,A2,True,False,True,False,False,True,True,True,True,True,True,True,No,2,No,No,No,No,2020_Jul_05_1131,nibs_stage_1,3.2.3,60.00065804249524,
2,0,2,0,,,,,0,0,0,0,19,0,19,0,,,,,,,,,,,,,,,,,,,,,,,,,,,,,,,,,,,,,,,,,,,,,,,,,Listen to the question and speak out your answer!,1297.4479808807373,None,1297.415472984314,1299.4479489326477,Unter solchen Bedingungen kann man den Umfang des Kreises leicht berechnen.,berechnen,1298.8312851190567,1302.9481518268585,1303.33152115345,None,1314.0320669412613,1315.048898935318,1315.4488170146942,None,./data/Subject_02/Session_01/Exp_data/2020_Jul_05_1131/rec_QA_run_02_block_000_trial_019.wav,,,,02,01,English,A2,True,False,True,False,False,True,True,True,True,True,True,True,No,2,No,No,No,No,2020_Jul_05_1131,nibs_stage_1,3.2.3,60.00065804249524,
2,0,2,0,,,,,0,0,0,0,20,0,20,0,,,,,,,,,,,,,,,,,,,,,,,,,,,,,,,,,,,,,,,,,,,,,,,,,Listen to the question and speak out your answer!,1318.4829800128937,None,1318.4666689634323,1320.4824409484863,Peter sitzt den ganzen Tag am Computer.,sitzt,1319.8656970262527,1322.749179840088,1323.0993040800095,None,1335.066535115242,None,1336.4832389354706,None,./data/Subject_02/Session_01/Exp_data/2020_Jul_05_1131/rec_QA_run_02_block_000_trial_020.wav,,,,02,01,English,A2,True,False,True,False,False,True,True,True,True,True,True,True,No,2,No,No,No,No,2020_Jul_05_1131,nibs_stage_1,3.2.3,60.00065804249524,
2,0,2,0,,,,,0,0,0,0,21,0,21,0,,,,,,,,,,,,,,,,,,,,,,,,,,,,,,,,,,,,,,,,,,,,,,,,,Listen to the question and speak out your answer!,1339.5517649650574,None,1339.5343259572983,1341.5501668453217,"Die Geheimzahl sollte nicht notiert werden, vor allem nicht auf der Bankomatkarte.",notiert,1340.9001361131668,1345.7503969669342,1346.1337360143661,None,1356.100890994072,1357.1176600456238,1357.517767906189,None,./data/Subject_02/Session_01/Exp_data/2020_Jul_05_1131/rec_QA_run_02_block_000_trial_021.wav,,,,02,01,English,A2,True,False,True,False,False,True,True,True,True,True,True,True,No,2,No,No,No,No,2020_Jul_05_1131,nibs_stage_1,3.2.3,60.00065804249524,
2,0,2,0,,,,,0,0,0,0,22,0,22,0,,,,,,,,,,,,,,,,,,,,,,,,,,,,,,,,,,,,,,,,,,,,,,,,,Listen to the question and speak out your answer!,1360.5847508907318,None,1360.5688549280167,1362.5845839977264,Die Teilnehmer müssen sich im Voraus für den Kurs anmelden.,anmelden,1361.9678889513016,1365.4183650016785,1365.7681180238724,None,1377.168685078621,None,1378.5854439735413,None,./data/Subject_02/Session_01/Exp_data/2020_Jul_05_1131/rec_QA_run_02_block_000_trial_022.wav,,,,02,01,English,A2,True,False,True,False,False,True,True,True,True,True,True,True,No,2,No,No,No,No,2020_Jul_05_1131,nibs_stage_1,3.2.3,60.00065804249524,
2,0,2,0,,,,,0,0,0,0,23,0,23,0,,,,,,,,,,,,,,,,,,,,,,,,,,,,,,,,,,,,,,,,,,,,,,,,,Listen to the question and speak out your answer!,1381.6210799217224,None,1381.6032091379166,1383.6190168857574,"Sie müssen mehr bezahlen, es fehlen noch ein paar Cent.",fehlen,1383.002326130867,1386.352509021759,1386.7358540296555,1387.7525780200958,1398.2031370401382,None,1399.6198818683624,None,./data/Subject_02/Session_01/Exp_data/2020_Jul_05_1131/rec_QA_run_02_block_000_trial_023.wav,,,,02,01,English,A2,True,False,True,False,False,True,True,True,True,True,True,True,No,2,No,No,No,No,2020_Jul_05_1131,nibs_stage_1,3.2.3,60.00065804249524,
2,0,2,0,,,,,0,0,0,0,24,0,24,0,,,,,,,,,,,,,,,,,,,,,,,,,,,,,,,,,,,,,,,,,,,,,,,,,Listen to the question and speak out your answer!,1402.654844045639,None,1402.637610077858,1404.6534450054169,Du darfst diese Bücher aufeinander liegen.,liegen,1404.036751151085,None,1406.8703309297562,1407.8869488239288,1419.2375501394272,None,1420.6545560359955,None,./data/Subject_02/Session_01/Exp_data/2020_Jul_05_1131/rec_QA_run_02_block_000_trial_024.wav,,,,02,01,English,A2,True,False,True,False,False,True,True,True,True,True,True,True,No,2,No,No,No,No,2020_Jul_05_1131,nibs_stage_1,3.2.3,60.00065804249524,
2,0,2,0,,,,,0,0,0,0,,,,,,,,,,,,,,,,,,,,,,,,,,,,,,,,,,,,,,,,,,1424.671259880066,None,,,,,,,,,,,,,,,,,,,,,,,,,,,,,02,01,English,A2,True,False,True,False,False,True,True,True,True,True,True,True,No,2,No,No,No,No,2020_Jul_05_1131,nibs_stage_1,3.2.3,60.00065804249524,
2,0,2,0,,,,,1,0,1,0,0,0,0,0,,,,,,,,,,,,,,,,,,,,,,,,,,,,,,,,,,,,,,,,,,,,,,,,,Listen to the question and speak out your answer!,1450.2564170360565,None,1450.22394490242,1452.2559189796448,"Hier gibt es viele Tiere, die auf verschiedenen Kontinenten leben.",leben,1451.6392160654068,1455.689442873001,1456.072877049446,None,1466.8400090932846,1467.856752872467,1468.2567558288574,None,./data/Subject_02/Session_01/Exp_data/2020_Jul_05_1131/rec_QA_run_02_block_001_trial_000.wav,,,,02,01,English,A2,True,False,True,False,False,True,True,True,True,True,True,True,No,2,No,No,No,No,2020_Jul_05_1131,nibs_stage_1,3.2.3,60.00065804249524,
2,0,2,0,,,,,1,0,1,0,1,0,1,0,,,,,,,,,,,,,,,,,,,,,,,,,,,,,,,,,,,,,,,,,,,,,,,,,Listen to the question and speak out your answer!,1471.2908120155334,None,1471.2578399181366,1473.290370941162,Meine Uhr zeigt die aktuelle Uhrzeit in Berlin und New York an.,zeigt,1472.6736739873886,1476.6571719646454,1477.0072339773178,1478.0239310264587,1487.8744901418686,None,1489.291198015213,None,./data/Subject_02/Session_01/Exp_data/2020_Jul_05_1131/rec_QA_run_02_block_001_trial_001.wav,,,,02,01,English,A2,True,False,True,False,False,True,True,True,True,True,True,True,No,2,No,No,No,No,2020_Jul_05_1131,nibs_stage_1,3.2.3,60.00065804249524,
2,0,2,0,,,,,1,0,1,0,2,0,2,0,,,,,,,,,,,,,,,,,,,,,,,,,,,,,,,,,,,,,,,,,,,,,,,,,Listen to the question and speak out your answer!,1492.3257479667664,None,1492.3089491128922,1494.324777841568,"Ich sollte aufstehen, wenn morgens der Wecker geläutet.",geläutet,1493.7080820798874,1496.991866827011,1497.3415931463242,1498.3583400249481,1508.9089480638504,None,1510.3256068229675,None,./data/Subject_02/Session_01/Exp_data/2020_Jul_05_1131/rec_QA_run_02_block_001_trial_002.wav,,,,02,01,English,A2,True,False,True,False,False,True,True,True,True,True,True,True,No,2,No,No,No,No,2020_Jul_05_1131,nibs_stage_1,3.2.3,60.00065804249524,
2,0,2,0,,,,,1,0,1,0,3,0,3,0,,,,,,,,,,,,,,,,,,,,,,,,,,,,,,,,,,,,,,,,,,,,,,,,,Listen to the question and speak out your answer!,1513.3930649757385,None,1513.3600158691406,1515.392541885376,"Wenn Sie mit diesem Produkt nicht zufrieden sind, können wir eine Alternative anbieten.",anbieten,1514.7425280809402,1519.6594598293304,1520.0761419534683,None,1529.943312048912,None,1531.360060930252,None,./data/Subject_02/Session_01/Exp_data/2020_Jul_05_1131/rec_QA_run_02_block_001_trial_003.wav,,,,02,01,English,A2,True,False,True,False,False,True,True,True,True,True,True,True,No,2,No,No,No,No,2020_Jul_05_1131,nibs_stage_1,3.2.3,60.00065804249524,
2,0,2,0,,,,,1,0,1,0,4,0,4,0,,,,,,,,,,,,,,,,,,,,,,,,,,,,,,,,,,,,,,,,,,,,,,,,,Listen to the question and speak out your answer!,1534.4269738197327,None,1534.3944568634033,1536.4270558357239,Das Experiment hat eine Woche lang gedauert.,gedauert,1535.7772670984268,None,1538.9441720247269,1539.9604940414429,1550.9943751096725,None,1552.4111440181732,None,./data/Subject_02/Session_01/Exp_data/2020_Jul_05_1131/rec_QA_run_02_block_001_trial_004.wav,,,,02,01,English,A2,True,False,True,False,False,True,True,True,True,True,True,True,No,2,No,No,No,No,2020_Jul_05_1131,nibs_stage_1,3.2.3,60.00065804249524,
2,0,2,0,,,,,1,0,1,0,5,0,5,0,,,,,,,,,,,,,,,,,,,,,,,,,,,,,,,,,,,,,,,,,,,,,,,,,Listen to the question and speak out your answer!,1555.4953029155731,None,1555.4623180627823,1557.4947500228882,"Er beschäftigt sich damit, diese kaputte Maschine zu reparieren.",reparieren,1556.8780599832535,None,1561.2116330862045,None,1572.0788289308548,None,1573.4956228733063,None,./data/Subject_02/Session_01/Exp_data/2020_Jul_05_1131/rec_QA_run_02_block_001_trial_005.wav,,,,02,01,English,A2,True,False,True,False,False,True,True,True,True,True,True,True,No,2,No,No,No,No,2020_Jul_05_1131,nibs_stage_1,3.2.3,60.00065804249524,
2,0,2,0,,,,,1,0,1,0,6,0,6,0,,,,,,,,,,,,,,,,,,,,,,,,,,,,,,,,,,,,,,,,,,,,,,,,,Listen to the question and speak out your answer!,1576.529091835022,None,1576.4966819286346,1578.5291578769684,Für dieses Produkt wird keine technische Unterstützung mehr angeboten.,angeboten,1577.9125629663467,None,1582.4463831186295,None,1593.1132780313492,None,1594.5300450325012,None,./data/Subject_02/Session_01/Exp_data/2020_Jul_05_1131/rec_QA_run_02_block_001_trial_006.wav,,,,02,01,English,A2,True,False,True,False,False,True,True,True,True,True,True,True,No,2,No,No,No,No,2020_Jul_05_1131,nibs_stage_1,3.2.3,60.00065804249524,
2,0,2,0,,,,,1,0,1,0,7,0,7,0,,,,,,,,,,,,,,,,,,,,,,,,,,,,,,,,,,,,,,,,,,,,,,,,,Listen to the question and speak out your answer!,1597.5641629695892,None,1597.5311069488525,1599.5635118484497,Die Erklärungen des Lehrers haben absolut Sinn ergeben.,ergeben,1598.9135719537735,1602.3304200172424,1602.7471219301224,None,1614.1143609285355,None,1615.5314819812775,None,./data/Subject_02/Session_01/Exp_data/2020_Jul_05_1131/rec_QA_run_02_block_001_trial_007.wav,,,,02,01,English,A2,True,False,True,False,False,True,True,True,True,True,True,True,No,2,No,No,No,No,2020_Jul_05_1131,nibs_stage_1,3.2.3,60.00065804249524,
2,0,2,0,,,,,1,0,1,0,8,0,8,0,,,,,,,,,,,,,,,,,,,,,,,,,,,,,,,,,,,,,,,,,,,,,,,,,Listen to the question and speak out your answer!,1618.5996208190918,None,1618.582279086113,1620.5980558395386,Marie mag lieber Sport.,mag,1619.9813400506973,None,1622.1148520708084,None,1635.1823390722275,None,1636.5988750457764,None,./data/Subject_02/Session_01/Exp_data/2020_Jul_05_1131/rec_QA_run_02_block_001_trial_008.wav,,,,02,01,English,A2,True,False,True,False,False,True,True,True,True,True,True,True,No,2,No,No,No,No,2020_Jul_05_1131,nibs_stage_1,3.2.3,60.00065804249524,
2,0,2,0,,,,,1,0,1,0,9,0,9,0,,,,,,,,,,,,,,,,,,,,,,,,,,,,,,,,,,,,,,,,,,,,,,,,,Listen to the question and speak out your answer!,1639.6674568653107,None,1639.6502729654312,1641.699156999588,Wir haben auf der Konferenz einige grundlegende Fragen zum Klimaschutz diskutiert.,diskutiert,1641.049103140831,1646.132915019989,1646.5160650014877,None,1656.249913096428,None,1657.6666209697723,None,./data/Subject_02/Session_01/Exp_data/2020_Jul_05_1131/rec_QA_run_02_block_001_trial_009.wav,,,,02,01,English,A2,True,False,True,False,False,True,True,True,True,True,True,True,No,2,No,No,No,No,2020_Jul_05_1131,nibs_stage_1,3.2.3,60.00065804249524,
2,0,2,0,,,,,1,0,1,0,10,0,10,0,,,,,,,,,,,,,,,,,,,,,,,,,,,,,,,,,,,,,,,,,,,,,,,,,Listen to the question and speak out your answer!,1660.7340250015259,None,1660.7010478973389,1662.733678817749,Zu Beginn der Konferenz wird der Präsident eine Rede halten.,halten,1662.116879105568,None,1666.250414967537,None,1677.317752957344,None,1678.7344069480896,None,./data/Subject_02/Session_01/Exp_data/2020_Jul_05_1131/rec_QA_run_02_block_001_trial_010.wav,,,,02,01,English,A2,True,False,True,False,False,True,True,True,True,True,True,True,No,2,No,No,No,No,2020_Jul_05_1131,nibs_stage_1,3.2.3,60.00065804249524,
2,0,2,0,,,,,1,0,1,0,11,0,11,0,,,,,,,,,,,,,,,,,,,,,,,,,,,,,,,,,,,,,,,,,,,,,,,,,Listen to the question and speak out your answer!,1681.7685730457306,None,1681.7354998588562,1683.7679829597473,Während oder nach einem Regen kann man einen Regenbogen vorsehen.,vorsehen,1683.1512991189957,1687.0351068973541,1687.4183050394058,1688.4351739883423,1698.352147936821,None,1699.7688570022583,None,./data/Subject_02/Session_01/Exp_data/2020_Jul_05_1131/rec_QA_run_02_block_001_trial_011.wav,,,,02,01,English,A2,True,False,True,False,False,True,True,True,True,True,True,True,No,2,No,No,No,No,2020_Jul_05_1131,nibs_stage_1,3.2.3,60.00065804249524,
2,0,2,0,,,,,1,0,1,0,12,0,12,0,,,,,,,,,,,,,,,,,,,,,,,,,,,,,,,,,,,,,,,,,,,,,,,,,Listen to the question and speak out your answer!,1702.787360906601,None,1702.769940853119,1704.7857468128204,Wir bestellten ein stück Hassnuss Kuchen zum Dessert.,bestellten,1704.1691981554031,None,1707.7691999673843,None,1719.3698691129684,None,1720.7866070270538,None,./data/Subject_02/Session_01/Exp_data/2020_Jul_05_1131/rec_QA_run_02_block_001_trial_012.wav,,,,02,01,English,A2,True,False,True,False,False,True,True,True,True,True,True,True,No,2,No,No,No,No,2020_Jul_05_1131,nibs_stage_1,3.2.3,60.00065804249524,
2,0,2,0,,,,,1,0,1,0,13,0,13,0,,,,,,,,,,,,,,,,,,,,,,,,,,,,,,,,,,,,,,,,,,,,,,,,,Listen to the question and speak out your answer!,1723.853502035141,None,1723.821035861969,1725.8536880016327,Ihre Kleider riechen nach Rauch.,riechen,1725.2035111188889,None,1727.770299077034,None,1740.4042950868607,None,1741.820925951004,None,./data/Subject_02/Session_01/Exp_data/2020_Jul_05_1131/rec_QA_run_02_block_001_trial_013.wav,,,,02,01,English,A2,True,False,True,False,False,True,True,True,True,True,True,True,No,2,No,No,No,No,2020_Jul_05_1131,nibs_stage_1,3.2.3,60.00065804249524,
2,0,2,0,,,,,1,0,1,0,14,0,14,0,,,,,,,,,,,,,,,,,,,,,,,,,,,,,,,,,,,,,,,,,,,,,,,,,Listen to the question and speak out your answer!,1744.8878598213196,None,1744.8554499149323,1746.8879458904266,"Es ist nicht erlaubt für alle Autos, vor dem Notausgang zu parken.",parken,1746.2712689638138,None,1750.7382119894028,None,1761.4720579385757,None,1762.8887979984283,None,./data/Subject_02/Session_01/Exp_data/2020_Jul_05_1131/rec_QA_run_02_block_001_trial_014.wav,,,,02,01,English,A2,True,False,True,False,False,True,True,True,True,True,True,True,No,2,No,No,No,No,2020_Jul_05_1131,nibs_stage_1,3.2.3,60.00065804249524,
2,0,2,0,,,,,1,0,1,0,15,0,15,0,,,,,,,,,,,,,,,,,,,,,,,,,,,,,,,,,,,,,,,,,,,,,,,,,Listen to the question and speak out your answer!,1765.9224660396576,None,1765.8898918628693,1767.9223940372467,An der Kasse bezahlen wir mit Bankomatkarte.,bezahlen,1767.3057960271835,1770.3558628559113,1770.7392131090164,1771.7559280395508,1782.5065010786057,1783.5232288837433,1783.9232280254364,None,./data/Subject_02/Session_01/Exp_data/2020_Jul_05_1131/rec_QA_run_02_block_001_trial_015.wav,,,,02,01,English,A2,True,False,True,False,False,True,True,True,True,True,True,True,No,2,No,No,No,No,2020_Jul_05_1131,nibs_stage_1,3.2.3,60.00065804249524,
2,0,2,0,,,,,1,0,1,0,16,0,16,0,,,,,,,,,,,,,,,,,,,,,,,,,,,,,,,,,,,,,,,,,,,,,,,,,Listen to the question and speak out your answer!,1786.958349943161,None,1786.9409929513931,1788.956827878952,Lisa tanzt im Ballett.,tanzt,1788.3400601148605,None,1790.3402761220932,None,1803.5409799814224,None,1804.9578850269318,None,./data/Subject_02/Session_01/Exp_data/2020_Jul_05_1131/rec_QA_run_02_block_001_trial_016.wav,,,,02,01,English,A2,True,False,True,False,False,True,True,True,True,True,True,True,No,2,No,No,No,No,2020_Jul_05_1131,nibs_stage_1,3.2.3,60.00065804249524,
2,0,2,0,,,,,1,0,1,0,17,0,17,0,,,,,,,,,,,,,,,,,,,,,,,,,,,,,,,,,,,,,,,,,,,,,,,,,Listen to the question and speak out your answer!,1808.0417339801788,None,1808.0091310739517,1810.0412559509277,"Die Produkte, die ich bestellt hatte, kamen drei Tage später an.",kamen,1809.3912271261215,1813.5414879322052,1813.9248319864273,None,1824.5920771360397,None,1826.0088338851929,None,./data/Subject_02/Session_01/Exp_data/2020_Jul_05_1131/rec_QA_run_02_block_001_trial_017.wav,,,,02,01,English,A2,True,False,True,False,False,True,True,True,True,True,True,True,No,2,No,No,No,No,2020_Jul_05_1131,nibs_stage_1,3.2.3,60.00065804249524,
2,0,2,0,,,,,1,0,1,0,18,0,18,0,,,,,,,,,,,,,,,,,,,,,,,,,,,,,,,,,,,,,,,,,,,,,,,,,Listen to the question and speak out your answer!,1829.0762419700623,None,1829.0431959629059,1831.0756950378418,"Er muss arbeiten, um seine beiden Kinder großzuziehen.",arbeiten,1830.4590040445328,1833.7425038814545,1834.0925220251083,None,1845.6597989797592,1846.6766159534454,1847.0765409469604,None,./data/Subject_02/Session_01/Exp_data/2020_Jul_05_1131/rec_QA_run_02_block_001_trial_018.wav,,,,02,01,English,A2,True,False,True,False,False,True,True,True,True,True,True,True,No,2,No,No,No,No,2020_Jul_05_1131,nibs_stage_1,3.2.3,60.00065804249524,
2,0,2,0,,,,,1,0,1,0,19,0,19,0,,,,,,,,,,,,,,,,,,,,,,,,,,,,,,,,,,,,,,,,,,,,,,,,,Listen to the question and speak out your answer!,1850.1106929779053,None,1850.0777080059052,1852.1101319789886,"Da der Koffer bereits zu schwer ist, muss ich leichte Kleidung einpacken.",einpacken,1851.4600919485092,None,1855.9603439569473,1856.97691988945,1866.6609171628952,None,1868.0776059627533,None,./data/Subject_02/Session_01/Exp_data/2020_Jul_05_1131/rec_QA_run_02_block_001_trial_019.wav,,,,02,01,English,A2,True,False,True,False,False,True,True,True,True,True,True,True,No,2,No,No,No,No,2020_Jul_05_1131,nibs_stage_1,3.2.3,60.00065804249524,
2,0,2,0,,,,,1,0,1,0,20,0,20,0,,,,,,,,,,,,,,,,,,,,,,,,,,,,,,,,,,,,,,,,,,,,,,,,,Listen to the question and speak out your answer!,1871.1450698375702,None,1871.112049818039,1873.144551038742,Der Bau des Gebäudes hat 3 Jahre gedauert und ist endlich fast abgeschlossen.,abgeschlossen,1872.4945279359818,None,1877.5281270742416,None,1887.6953319311142,1888.7123539447784,1889.1120538711548,None,./data/Subject_02/Session_01/Exp_data/2020_Jul_05_1131/rec_QA_run_02_block_001_trial_020.wav,,,,02,01,English,A2,True,False,True,False,False,True,True,True,True,True,True,True,No,2,No,No,No,No,2020_Jul_05_1131,nibs_stage_1,3.2.3,60.00065804249524,
2,0,2,0,,,,,1,0,1,0,21,0,21,0,,,,,,,,,,,,,,,,,,,,,,,,,,,,,,,,,,,,,,,,,,,,,,,,,Listen to the question and speak out your answer!,1892.1794838905334,None,1892.1464698314667,1894.1789920330048,Der Arbeiter repariert eine Panne.,repariert,1893.5622140169144,1895.8790910243988,1896.262431025505,None,1908.7297531366348,None,1910.146500825882,None,./data/Subject_02/Session_01/Exp_data/2020_Jul_05_1131/rec_QA_run_02_block_001_trial_021.wav,,,,02,01,English,A2,True,False,True,False,False,True,True,True,True,True,True,True,No,2,No,No,No,No,2020_Jul_05_1131,nibs_stage_1,3.2.3,60.00065804249524,
2,0,2,0,,,,,1,0,1,0,22,0,22,0,,,,,,,,,,,,,,,,,,,,,,,,,,,,,,,,,,,,,,,,,,,,,,,,,Listen to the question and speak out your answer!,1913.213989019394,None,1913.1809208393097,1915.2134268283844,Er hat jahrzehntelang geraucht und seine Lunge schwer geschädigt.,geraucht,1914.5967310667038,1918.2135808467865,1918.5969520807266,1919.61363697052,1929.797819018364,None,1931.2143049240112,None,./data/Subject_02/Session_01/Exp_data/2020_Jul_05_1131/rec_QA_run_02_block_001_trial_022.wav,,,,02,01,English,A2,True,False,True,False,False,True,True,True,True,True,True,True,No,2,No,No,No,No,2020_Jul_05_1131,nibs_stage_1,3.2.3,60.00065804249524,
2,0,2,0,,,,,1,0,1,0,23,0,23,0,,,,,,,,,,,,,,,,,,,,,,,,,,,,,,,,,,,,,,,,,,,,,,,,,Listen to the question and speak out your answer!,1934.2479619979858,None,1934.2152528762817,1936.2478458881378,Sam ist ein ehrlicher Mann und sagt immer die Wahrheit.,sagt,1935.597815155983,None,1939.1979979276657,None,1950.7986050844193,None,1952.21542096138,None,./data/Subject_02/Session_01/Exp_data/2020_Jul_05_1131/rec_QA_run_02_block_001_trial_023.wav,,,,02,01,English,A2,True,False,True,False,False,True,True,True,True,True,True,True,No,2,No,No,No,No,2020_Jul_05_1131,nibs_stage_1,3.2.3,60.00065804249524,
2,0,2,0,,,,,1,0,1,0,24,0,24,0,,,,,,,,,,,,,,,,,,,,,,,,,,,,,,,,,,,,,,,,,,,,,,,,,Listen to the question and speak out your answer!,1955.2837040424347,None,1955.2497878074646,1957.2822749614716,Die Studenten müssen sich für den Kurs anmelden.,anmelden,1956.6655970811844,1959.4826610088348,1959.8658009767532,None,1971.8664020299911,None,1973.283360004425,None,./data/Subject_02/Session_01/Exp_data/2020_Jul_05_1131/rec_QA_run_02_block_001_trial_024.wav,,,,02,01,English,A2,True,False,True,False,False,True,True,True,True,True,True,True,No,2,No,No,No,No,2020_Jul_05_1131,nibs_stage_1,3.2.3,60.00065804249524,
2,0,2,0,,,,,1,0,1,0,,,,,,,,,,,,,,,,,,,,,,,,,,,,,,,,,,,,,,,,,,1977.3000528812408,None,,,,,,,,,,,,,,,,,,,,,,,,,,,,,02,01,English,A2,True,False,True,False,False,True,True,True,True,True,True,True,No,2,No,No,No,No,2020_Jul_05_1131,nibs_stage_1,3.2.3,60.00065804249524,
2,0,2,0,,,,,,,,,,,,,,,,,,,,,,,,,,,,,,,,,,,,,,,,,,,,,,,,,,,,,,,,,,,,,,,,,,,,,,,,,,,,,Please remain seated until further instruction via the earphone.,66.26701092720032,None,02,01,English,A2,True,False,True,False,False,True,True,True,True,True,True,True,No,2,No,No,No,No,2020_Jul_05_1131,nibs_stage_1,3.2.3,60.00065804249524,
