run.thisRepN,run.thisTrialN,run.thisN,run.thisIndex,QA_block.thisRepN,QA_block.thisTrialN,QA_block.thisN,QA_block.thisIndex,QA_trial.thisRepN,QA_trial.thisTrialN,QA_trial.thisN,QA_trial.thisIndex,Pause_cont.started,Pause_cont.stopped,QA_rec_text.text,QA_rec_text.started,QA_rec_text.stopped,QA_rec_beep_hint.started,QA_rec_beep_hint.stopped,QA_rec_question.sen_text,QA_rec_question.cen_text,QA_rec_question.started,QA_rec_question.stopped,QA_rec_beep_start.started,QA_rec_beep_start.stopped,QA_rec_beep_end.started,QA_rec_beep_end.stopped,QA_rec_break.started,QA_rec_break.stopped,filename,participant,session,First language,German level,Full_screen,Instruction,Intro,Artifact,Cali_pre,Fade_in_out,Artifact_within,Resting_State,QA,Pause,Cali_post,End,Breakpoint_Cali_pre_trial,Breakpoint_Run,Breakpoint_RS_block,Breakpoint_QA_block,Breakpoint_QA_trial,Breakpoint_Cali_post_trial,date,expName,psychopyVersion,frameRate,
0,0,0,0,1,0,1,0,0,0,0,0,46.02615690231323,None,Listen to the question and speak out your answer!,61.060173988342285,None,61.06039891242981,63.0602707862854,"Wir müssen Mittel und Wege finden, um das zu ändern.",finden,62.44362058639526,65.61040496826172,66.02710666656495,None,77.64435758590699,None,79.04444980621338,80.04451489448547,./data/Subject_01/Session_00/Exp_data/2020_Jul_13_1733/rec_QA_run_00_block_001_trial_000.wav,01,00,English,A2,True,False,False,False,False,False,False,False,True,True,True,True,No,0,No,1,No,No,2020_Jul_13_1733,nibs_stage_1,3.2.3,60.01714242377845,
0,0,0,0,1,0,1,0,1,0,1,0,,,Listen to the question and speak out your answer!,82.09554195404053,None,82.0947651386261,84.09506297111511,Können Sie mir auf Hundert Euro herausgeben?,herausgeben,83.47848453521729,86.19495582580566,86.5950445175171,None,98.67903652191163,99.67909693717957,100.07910299301147,101.07919979095459,./data/Subject_01/Session_00/Exp_data/2020_Jul_13_1733/rec_QA_run_00_block_001_trial_001.wav,01,00,English,A2,True,False,False,False,False,False,False,False,True,True,True,True,No,0,No,1,No,No,2020_Jul_13_1733,nibs_stage_1,3.2.3,60.01714242377845,
0,0,0,0,1,0,1,0,2,0,2,0,,,Listen to the question and speak out your answer!,103.14678192138672,None,103.12945003509522,105.1293318271637,"Damit Pflanzen gut wachsen, müssen wir sie mehr Wasser gießen.",gießen,104.51267948150635,None,108.49616255760193,109.4962248802185,119.71347250938416,None,121.11350798606873,122.11373591423035,./data/Subject_01/Session_00/Exp_data/2020_Jul_13_1733/rec_QA_run_00_block_001_trial_002.wav,01,00,English,A2,True,False,False,False,False,False,False,False,True,True,True,True,No,0,No,1,No,No,2020_Jul_13_1733,nibs_stage_1,3.2.3,60.01714242377845,
0,0,0,0,1,0,1,0,3,0,3,0,,,Listen to the question and speak out your answer!,124.19867396354675,None,124.1806251525879,126.18045377731323,Seine Großmutter kann ganz spannend erzählen.,erzählen,125.5637225151062,128.1638720035553,128.58068552017212,None,140.7645305633545,141.7647488117218,142.16451287269592,143.16468381881714,./data/Subject_01/Session_00/Exp_data/2020_Jul_13_1733/rec_QA_run_00_block_001_trial_003.wav,01,00,English,A2,True,False,False,False,False,False,False,False,True,True,True,True,No,0,No,1,No,No,2020_Jul_13_1733,nibs_stage_1,3.2.3,60.01714242377845,
0,0,0,0,1,0,1,0,4,0,4,0,,,Listen to the question and speak out your answer!,145.23143196105957,None,145.21493406295778,147.21486496925354,"Früh übt sich, wer ein Meister werden will.",werden,146.5983256340027,149.36473894119263,149.74810662269593,None,161.8153916835785,162.83211088180542,163.23226594924927,None,./data/Subject_01/Session_00/Exp_data/2020_Jul_13_1733/rec_QA_run_00_block_001_trial_004.wav,01,00,English,A2,True,False,False,False,False,False,False,False,True,True,True,True,No,0,No,1,No,No,2020_Jul_13_1733,nibs_stage_1,3.2.3,60.01714242377845,
0,0,0,0,1,0,1,0,5,0,5,0,,,Listen to the question and speak out your answer!,166.29950380325317,None,166.28244609832765,168.29903292655945,Durch ein Fernrohr kann man manchmal sogar die Venus sehen.,sehen,167.68232955932618,170.966148853302,171.3492666721344,None,182.8831554889679,None,184.29990696907043,None,./data/Subject_01/Session_00/Exp_data/2020_Jul_13_1733/rec_QA_run_00_block_001_trial_005.wav,01,00,English,A2,True,False,False,False,False,False,False,False,True,True,True,True,No,0,No,1,No,No,2020_Jul_13_1733,nibs_stage_1,3.2.3,60.01714242377845,
0,0,0,0,1,0,1,0,6,0,6,0,,,Listen to the question and speak out your answer!,187.36700797080994,None,187.3501672267914,189.36700081825256,Dieser Supermarkt hat nur am Tage geöffnet.,geöffnet,188.75010647773743,191.53378796577454,191.9169506072998,None,203.95093669891358,None,205.36762690544128,None,./data/Subject_01/Session_00/Exp_data/2020_Jul_13_1733/rec_QA_run_00_block_001_trial_006.wav,01,00,English,A2,True,False,False,False,False,False,False,False,True,True,True,True,No,0,No,1,No,No,2020_Jul_13_1733,nibs_stage_1,3.2.3,60.01714242377845,
0,0,0,0,1,0,1,0,7,0,7,0,,,Listen to the question and speak out your answer!,208.4347939491272,None,208.41796607971193,210.43450784683228,"Um eine Kreditkarte zu bewerben, muss man älter als 18 werden. ",bewerben,209.8178626537323,None,214.25143566131592,None,225.01866068840027,None,226.4353768825531,None,./data/Subject_01/Session_00/Exp_data/2020_Jul_13_1733/rec_QA_run_00_block_001_trial_007.wav,01,00,English,A2,True,False,False,False,False,False,False,False,True,True,True,True,No,0,No,1,No,No,2020_Jul_13_1733,nibs_stage_1,3.2.3,60.01714242377845,
0,0,0,0,1,0,1,0,8,0,8,0,,,Listen to the question and speak out your answer!,229.51896500587463,None,229.48570914268495,231.51894879341125,Die Hausfrau muss jeden Tag Lebensmittel einkaufen.,einkaufen,230.90225853919983,None,234.4691545009613,235.4859697818756,246.10307469367982,None,247.51990699768066,None,./data/Subject_01/Session_00/Exp_data/2020_Jul_13_1733/rec_QA_run_00_block_001_trial_008.wav,01,00,English,A2,True,False,False,False,False,False,False,False,True,True,True,True,No,0,No,1,No,No,2020_Jul_13_1733,nibs_stage_1,3.2.3,60.01714242377845,
0,0,0,0,1,0,1,0,9,0,9,0,,,Listen to the question and speak out your answer!,250.55339694023132,None,250.52010040283204,252.55339789390564,"Wenn ich mich gestresst fühle, muss ich mich selbst daran erinnern, ruhig zu bleiben.",erinnern,251.93671956062317,256.65353894233704,257.03697457313535,None,267.1375016212463,None,268.55423378944397,None,./data/Subject_01/Session_00/Exp_data/2020_Jul_13_1733/rec_QA_run_00_block_001_trial_009.wav,01,00,English,A2,True,False,False,False,False,False,False,False,True,True,True,True,No,0,No,1,No,No,2020_Jul_13_1733,nibs_stage_1,3.2.3,60.01714242377845,
0,0,0,0,1,0,1,0,10,0,10,0,,,Listen to the question and speak out your answer!,271.58809185028076,None,271.5712041378021,273.5878338813782,Herr Müller hat einen Flug auf die Mittelmeerinsel Mallorca gebucht.,gebucht,272.9711724758148,276.95496892929077,277.3380326271057,None,288.1719075679779,None,289.58857679367065,None,./data/Subject_01/Session_00/Exp_data/2020_Jul_13_1733/rec_QA_run_00_block_001_trial_010.wav,01,00,English,A2,True,False,False,False,False,False,False,False,True,True,True,True,No,0,No,1,No,No,2020_Jul_13_1733,nibs_stage_1,3.2.3,60.01714242377845,
0,0,0,0,1,0,1,0,11,0,11,0,,,Listen to the question and speak out your answer!,292.65551590919495,None,292.6389362335205,294.6556248664856,"Die Tür bewegt sich nur, wenn man mit viel Kraft dagegen drückt.",drückt,294.03890051841734,297.6893320083618,298.07242860794065,None,309.2063395023346,None,310.6230688095093,None,./data/Subject_01/Session_00/Exp_data/2020_Jul_13_1733/rec_QA_run_00_block_001_trial_011.wav,01,00,English,A2,True,False,False,False,False,False,False,False,True,True,True,True,No,0,No,1,No,No,2020_Jul_13_1733,nibs_stage_1,3.2.3,60.01714242377845,
0,0,0,0,1,0,1,0,12,0,12,0,,,Listen to the question and speak out your answer!,313.69056487083435,None,313.6734661579132,315.6900727748871,Er wird die Wurst mit Butter braten.,braten,315.07330455780027,317.1900808811188,317.57351365089414,None,330.2741815090179,None,331.6908359527588,None,./data/Subject_01/Session_00/Exp_data/2020_Jul_13_1733/rec_QA_run_00_block_001_trial_012.wav,01,00,English,A2,True,False,False,False,False,False,False,False,True,True,True,True,No,0,No,1,No,No,2020_Jul_13_1733,nibs_stage_1,3.2.3,60.01714242377845,
0,0,0,0,1,0,1,0,13,0,13,0,,,Listen to the question and speak out your answer!,334.7577509880066,None,334.72462849617,336.75790786743164,Früher haben in Europa und Asien Neandertaler gelebt.,gelebt,336.1410705089569,None,340.24127449989317,None,351.3419455528259,352.3586368560791,352.7586498260498,None,./data/Subject_01/Session_00/Exp_data/2020_Jul_13_1733/rec_QA_run_00_block_001_trial_013.wav,01,00,English,A2,True,False,False,False,False,False,False,False,True,True,True,True,No,0,No,1,No,No,2020_Jul_13_1733,nibs_stage_1,3.2.3,60.01714242377845,
0,0,0,0,1,0,1,0,14,0,14,0,,,Listen to the question and speak out your answer!,355.7927129268646,None,355.7588685035705,357.792231798172,In Österreich gibt es eine richtige Kaffeehauskultur.,gibt,357.1754726409912,360.49231481552124,360.8422705173492,361.8590488433838,372.3762635231018,None,373.7929289340973,None,./data/Subject_01/Session_00/Exp_data/2020_Jul_13_1733/rec_QA_run_00_block_001_trial_014.wav,01,00,English,A2,True,False,False,False,False,False,False,False,True,True,True,True,No,0,No,1,No,No,2020_Jul_13_1733,nibs_stage_1,3.2.3,60.01714242377845,
0,0,0,0,1,0,1,0,15,0,15,0,,,Listen to the question and speak out your answer!,376.82667088508606,None,376.8100730895996,378.82661485671997,"In Neuseeland und Irland ist es so grün, weil es besonders oft regnet.",regnet,378.20989360809324,None,382.9435376167297,None,393.41078462600706,394.42741894721985,394.8274178504944,None,./data/Subject_01/Session_00/Exp_data/2020_Jul_13_1733/rec_QA_run_00_block_001_trial_015.wav,01,00,English,A2,True,False,False,False,False,False,False,False,True,True,True,True,No,0,No,1,No,No,2020_Jul_13_1733,nibs_stage_1,3.2.3,60.01714242377845,
0,0,0,0,1,0,1,0,16,0,16,0,,,Listen to the question and speak out your answer!,397.8611218929291,None,397.8444001197815,399.86102390289307,Ich empfehle Ihnen unbedingt die traditionale Speise.,empfehle,399.2443806171417,402.59448981285095,402.9778496265411,403.9944667816162,414.4451076030731,None,415.8618497848511,None,./data/Subject_01/Session_00/Exp_data/2020_Jul_13_1733/rec_QA_run_00_block_001_trial_016.wav,01,00,English,A2,True,False,False,False,False,False,False,False,True,True,True,True,No,0,No,1,No,No,2020_Jul_13_1733,nibs_stage_1,3.2.3,60.01714242377845,
0,0,0,0,1,0,1,0,17,0,17,0,,,Listen to the question and speak out your answer!,418.9287738800049,None,418.89548640251155,420.92878699302673,"Weil er so hungrig war, hat Franz einmal einen Apfel gestohlen.",gestohlen,420.31208553314207,424.09585785865784,424.4790786743164,425.4956908226013,435.5128985881805,None,436.9296147823334,None,./data/Subject_01/Session_00/Exp_data/2020_Jul_13_1733/rec_QA_run_00_block_001_trial_017.wav,01,00,English,A2,True,False,False,False,False,False,False,False,True,True,True,True,No,0,No,1,No,No,2020_Jul_13_1733,nibs_stage_1,3.2.3,60.01714242377845,
0,0,0,0,1,0,1,0,18,0,18,0,,,Listen to the question and speak out your answer!,439.9798538684845,None,439.9465682029724,441.97986578941345,Die Tulpen stammen eigentlich aus Persien und der Türkei.,stammen,441.36315670013425,444.88006591796875,445.2633506298065,None,456.56396260261533,457.5807249546051,457.98069882392883,None,./data/Subject_01/Session_00/Exp_data/2020_Jul_13_1733/rec_QA_run_00_block_001_trial_018.wav,01,00,English,A2,True,False,False,False,False,False,False,False,True,True,True,True,No,0,No,1,No,No,2020_Jul_13_1733,nibs_stage_1,3.2.3,60.01714242377845,
0,0,0,0,1,0,1,0,19,0,19,0,,,Listen to the question and speak out your answer!,461.01458978652954,None,460.997678232193,463.0142729282379,"Wenn es kalt wird, muss ich einen warmen Pullover tragen.",tragen,462.39758052825925,None,466.0644287109375,None,477.59837164878843,None,479.01519298553467,None,./data/Subject_01/Session_00/Exp_data/2020_Jul_13_1733/rec_QA_run_00_block_001_trial_019.wav,01,00,English,A2,True,False,False,False,False,False,False,False,True,True,True,True,No,0,No,1,No,No,2020_Jul_13_1733,nibs_stage_1,3.2.3,60.01714242377845,
0,0,0,0,1,0,1,0,20,0,20,0,,,Listen to the question and speak out your answer!,482.0821747779846,None,482.0654222488403,484.08203077316284,"Als das Spiel unentschieden endete, wurde es um zweimal 15 Minuten verlängert.",endete,483.4653736591339,488.5489308834076,488.9322265625,None,498.66612162590025,None,500.08287477493286,None,./data/Subject_01/Session_00/Exp_data/2020_Jul_13_1733/rec_QA_run_00_block_001_trial_020.wav,01,00,English,A2,True,False,False,False,False,False,False,False,True,True,True,True,No,0,No,1,No,No,2020_Jul_13_1733,nibs_stage_1,3.2.3,60.01714242377845,
0,0,0,0,1,0,1,0,21,0,21,0,,,Listen to the question and speak out your answer!,503.15047097206116,None,503.1332010746002,505.14978098869324,"Ich kann dir gerne mein Fahrrad leihen, wenn du möchtest.",leihen,504.53309550285337,507.61662197113037,507.9999345779419,509.0166618824005,519.7339936733246,None,521.1506509780884,None,./data/Subject_01/Session_00/Exp_data/2020_Jul_13_1733/rec_QA_run_00_block_001_trial_021.wav,01,00,English,A2,True,False,False,False,False,False,False,False,True,True,True,True,No,0,No,1,No,No,2020_Jul_13_1733,nibs_stage_1,3.2.3,60.01714242377845,
0,0,0,0,1,0,1,0,22,0,22,0,,,Listen to the question and speak out your answer!,524.2185018062592,None,524.2009381771087,526.2175347805023,Der Präsident diskutierte das Thema auf der Pressekonferenz nicht.,diskutierte,525.6008395195007,529.8510599136353,530.2344855308532,None,540.801570558548,None,542.218407869339,None,./data/Subject_01/Session_00/Exp_data/2020_Jul_13_1733/rec_QA_run_00_block_001_trial_022.wav,01,00,English,A2,True,False,False,False,False,False,False,False,True,True,True,True,No,0,No,1,No,No,2020_Jul_13_1733,nibs_stage_1,3.2.3,60.01714242377845,
0,0,0,0,1,0,1,0,23,0,23,0,,,Listen to the question and speak out your answer!,545.2691648006439,None,545.252008485794,547.2686059474945,Lisa tanzt im Ballett.,tanzt,546.6519326210022,None,548.6519516944885,None,561.8528264999389,None,563.2694518566132,None,./data/Subject_01/Session_00/Exp_data/2020_Jul_13_1733/rec_QA_run_00_block_001_trial_023.wav,01,00,English,A2,True,False,False,False,False,False,False,False,True,True,True,True,No,0,No,1,No,No,2020_Jul_13_1733,nibs_stage_1,3.2.3,60.01714242377845,
0,0,0,0,1,0,1,0,24,0,24,0,,,Listen to the question and speak out your answer!,566.320230960846,None,566.3031104087829,568.319727897644,Ich bin krank und bleibe heute im Bett.,bleibe,567.7030166625976,570.1199069023132,570.5031806468963,None,582.9037984848022,None,584.3206009864807,None,./data/Subject_01/Session_00/Exp_data/2020_Jul_13_1733/rec_QA_run_00_block_001_trial_024.wav,01,00,English,A2,True,False,False,False,False,False,False,False,True,True,True,True,No,0,No,1,No,No,2020_Jul_13_1733,nibs_stage_1,3.2.3,60.01714242377845,
