run.thisRepN,run.thisTrialN,run.thisN,run.thisIndex,artifact_trial.thisRepN,artifact_trial.thisTrialN,artifact_trial.thisN,artifact_trial.thisIndex,QA_block.thisRepN,QA_block.thisTrialN,QA_block.thisN,QA_block.thisIndex,QA_trial.thisRepN,QA_trial.thisTrialN,QA_trial.thisN,QA_trial.thisIndex,Artifact_intro_title.started,Artifact_intro_title.stopped,Artifact_intro_text.text,Artifact_intro_text.started,Artifact_intro_text.stopped,Artifact_intro_audio.started,Artifact_intro_audio.stopped,Artifact_intro_cont.started,Artifact_intro_cont.stopped,Artifact_rec_text.text,Artifact_rec_text.started,Artifact_rec_text.stopped,Artifact_rec_beep_hint.started,Artifact_rec_beep_hint.stopped,Artifact_rec_action.started,Artifact_rec_action.stopped,Artifact_rec_beep_start.started,Artifact_rec_beep_start.stopped,Artifact_rec_recording.started,Artifact_rec_recording.stopped,Artifact_rec_beep_end.started,Artifact_rec_beep_end.stopped,Artifact_rec_break.started,Artifact_rec_break.stopped,the_end_text.started,the_end_text.stopped,the_end_text.text,participant,session,First language,German level,Full_screen,Instruction,Intro,Artifact,Cali_pre,Fade_in_out,Artifact_within,Resting_State,QA,Pause,Cali_post,End,Breakpoint_Cali_pre_trial,Breakpoint_Run,Breakpoint_RS_block,Breakpoint_QA_block,Breakpoint_QA_trial,Breakpoint_Cali_post_trial,date,expName,psychopyVersion,frameRate,
2,0,2,0,0,0,0,0,,,,,,,,,48.49354004859924,None,"  - Task: Artifacts collection   
  - Please follow audio instruction              
",48.49354004859924,None,48.46587481498719,None,74.861337184906,None,,76.89494395256042,None,76.88023192882538,78.89489316940308,78.27830917835236,None,81.67838509082794,82.67833304405212,83.07837707996369,93.07897901535034,93.4790070772171,None,94.87906503677368,95.87910413742065,,,,01,00,English,A2,True,False,True,False,False,False,True,False,False,False,False,True,No,2,No,No,No,No,2020_Jul_13_1936,nibs_stage_1,3.2.3,60.00022888270905,
2,0,2,0,1,0,1,0,,,,,,,,,,,,,,,,,,,98.89656805992126,None,98.89807088375092,100.91281914710999,100.27927525043488,None,103.67944724559784,104.67957210540771,105.0796101808548,115.0801010131836,115.48006613254547,None,116.88019514083862,117.88023495674133,,,,01,00,English,A2,True,False,True,False,False,False,True,False,False,False,False,True,No,2,No,No,No,No,2020_Jul_13_1936,nibs_stage_1,3.2.3,60.00022888270905,
2,0,2,0,2,0,2,0,,,,,,,,,,,,,,,,,,,120.91382718086243,120.91382718086243,120.89912374019623,122.91385412216187,122.29717524051667,None,125.69734508991242,126.69738006591797,127.09743506908417,137.09789299964905,137.49828703403472,None,138.89823603630066,139.89829111099243,,,,01,00,English,A2,True,False,True,False,False,False,True,False,False,False,False,True,No,2,No,No,No,No,2020_Jul_13_1936,nibs_stage_1,3.2.3,60.00022888270905,
2,0,2,0,3,0,3,0,,,,,,,,,,,,,,,,,,,142.93177795410156,None,142.917445731163,144.9318449497223,144.29853422641753,None,147.6987291097641,None,149.09876306056975,159.09920406341553,159.49949104785918,None,160.89937901496887,161.89965796470642,,,,01,00,English,A2,True,False,True,False,False,False,True,False,False,False,False,True,No,2,No,No,No,No,2020_Jul_13_1936,nibs_stage_1,3.2.3,60.00022888270905,
2,0,2,0,4,0,4,0,,,,,,,,,,,,,,,,,,,164.94962811470032,None,164.93501574993132,166.9497151374817,166.31645209789275,None,169.71652920246123,170.71657013893127,171.11652405261992,181.11710715293884,181.51715714931487,182.51717901229858,182.917387008667,183.91717410087585,,,,01,00,English,A2,True,False,True,False,False,False,True,False,False,False,False,True,No,2,No,No,No,No,2020_Jul_13_1936,nibs_stage_1,3.2.3,60.00022888270905,
2,0,2,0,5,0,5,0,,,,,,,,,,,,,,,,,,,186.96733713150024,None,186.9528737783432,188.96751308441162,188.3343981027603,None,191.73436625003814,192.7345051765442,193.13443524837493,203.13493514060974,203.5349791765213,None,204.935045003891,205.9351179599762,,,,01,00,English,A2,True,False,True,False,False,False,True,False,False,False,False,True,No,2,No,No,No,No,2020_Jul_13_1936,nibs_stage_1,3.2.3,60.00022888270905,
2,0,2,0,6,0,6,0,,,,,,,,,,,,,,,,,,,208.98525214195251,None,208.9707449197769,210.9853150844574,210.35188109874724,None,213.752708029747,214.75217700004578,215.15223224163054,225.15273213386536,225.55274922847747,None,226.9528729915619,227.95291900634766,,,,01,00,English,A2,True,False,True,False,False,False,True,False,False,False,False,True,No,2,No,No,No,No,2020_Jul_13_1936,nibs_stage_1,3.2.3,60.00022888270905,
2,0,2,0,7,0,7,0,,,,,,,,,,,,,,,,,,,231.00304698944092,None,230.9884918451309,233.00315117835999,232.36979920864104,235.36991715431213,235.7699871778488,236.7700080871582,237.1700320959091,247.17055797576904,247.5707011938095,None,248.97065901756287,249.97069311141968,,,,01,00,English,A2,True,False,True,False,False,False,True,False,False,False,False,True,No,2,No,No,No,No,2020_Jul_13_1936,nibs_stage_1,3.2.3,60.00022888270905,
2,0,2,0,8,0,8,0,,,,,,,,,,,,,,,,,,,253.02085614204407,None,253.00629670619963,255.0210521221161,254.38765604496,257.38780999183655,257.78781325817107,258.7878589630127,259.1879020452499,269.18839406967163,269.58843715190886,None,270.9884731769562,271.9886770248413,,,,01,00,English,A2,True,False,True,False,False,False,True,False,False,False,False,True,No,2,No,No,No,No,2020_Jul_13_1936,nibs_stage_1,3.2.3,60.00022888270905,
2,0,2,0,9,0,9,0,,,,,,,,,,,,,,,,,,,275.039528131485,None,275.02410490512847,277.0392770767212,276.4054191827774,279.40555214881897,279.8056331396103,280.805624961853,281.2059632062912,291.20618200302124,291.60635311603545,None,293.0063850879669,294.00678300857544,,,,01,00,English,A2,True,False,True,False,False,False,True,False,False,False,False,True,No,2,No,No,No,No,2020_Jul_13_1936,nibs_stage_1,3.2.3,60.00022888270905,
2,0,2,0,10,0,10,0,,,,,,,,,,,,,,,,,,,297.0568690299988,None,297.0419278860092,299.0570991039276,298.4232872247696,None,301.8233900785446,None,303.2234991312027,313.2241680622101,313.6242340326309,None,315.024108171463,316.0241210460663,,,,01,00,English,A2,True,False,True,False,False,False,True,False,False,False,False,True,No,2,No,No,No,No,2020_Jul_13_1936,nibs_stage_1,3.2.3,60.00022888270905,
2,0,2,0,11,0,11,0,,,,,,,,,,,,,,,,,,,319.0741620063782,None,319.0600047826767,321.07439613342285,320.44107205867766,None,323.84125621318816,324.84132409095764,325.2413552522659,335.24181604385376,335.641779255867,None,337.0420060157776,338.041944026947,,,,01,00,English,A2,True,False,True,False,False,False,True,False,False,False,False,True,No,2,No,No,No,No,2020_Jul_13_1936,nibs_stage_1,3.2.3,60.00022888270905,
2,0,2,0,12,0,12,0,,,,,,,,,,,,,,,,,,,341.0919051170349,None,341.0775848150253,343.0919680595398,342.45886118412017,345.45900416374207,345.85913808345794,None,347.2591710805893,357.27634501457214,357.65934212207793,None,359.05949115753174,360.05977296829224,,,,01,00,English,A2,True,False,True,False,False,False,True,False,False,False,False,True,No,2,No,No,No,No,2020_Jul_13_1936,nibs_stage_1,3.2.3,60.00022888270905,
2,0,2,0,13,0,13,0,,,,,,,,,,,,,,,,,,,363.1103370189667,None,363.0951538801193,365.1098051071167,364.4764562368393,None,367.8767290830612,None,369.27663309574126,379.2772150039673,379.67724425792693,None,381.0773980617523,382.07742714881897,,,,01,00,English,A2,True,False,True,False,False,False,True,False,False,False,False,True,No,2,No,No,No,No,2020_Jul_13_1936,nibs_stage_1,3.2.3,60.00022888270905,
2,0,2,0,14,0,14,0,,,,,,,,,,,,,,,,,,,385.12755608558655,None,385.11296875476836,387.1276080608368,386.4943171262741,None,389.89445025920867,None,391.29459912776946,401.29501605033875,401.69507105350493,None,403.0950381755829,404.0951659679413,,,,01,00,English,A2,True,False,True,False,False,False,True,False,False,False,False,True,No,2,No,No,No,No,2020_Jul_13_1936,nibs_stage_1,3.2.3,60.00022888270905,
2,0,2,0,,,,,0,0,0,0,,,,,,,,,,,,,,,,,,,,,,,,,,,,,,,,01,00,English,A2,True,False,True,False,False,False,True,False,False,False,False,True,No,2,No,No,No,No,2020_Jul_13_1936,nibs_stage_1,3.2.3,60.00022888270905,
2,0,2,0,,,,,1,0,1,0,,,,,,,,,,,,,,,,,,,,,,,,,,,,,,,,01,00,English,A2,True,False,True,False,False,False,True,False,False,False,False,True,No,2,No,No,No,No,2020_Jul_13_1936,nibs_stage_1,3.2.3,60.00022888270905,
2,0,2,0,,,,,,,,,,,,,,,,,,,,,,,,,,,,,,,,,,,,,,,,01,00,English,A2,True,False,True,False,False,False,True,False,False,False,False,True,No,2,No,No,No,No,2020_Jul_13_1936,nibs_stage_1,3.2.3,60.00022888270905,
3,0,3,0,,,,,0,0,0,0,,,,,,,,,,,,,,,,,,,,,,,,,,,,,,,,01,00,English,A2,True,False,True,False,False,False,True,False,False,False,False,True,No,2,No,No,No,No,2020_Jul_13_1936,nibs_stage_1,3.2.3,60.00022888270905,
3,0,3,0,,,,,1,0,1,0,,,,,,,,,,,,,,,,,,,,,,,,,,,,,,,,01,00,English,A2,True,False,True,False,False,False,True,False,False,False,False,True,No,2,No,No,No,No,2020_Jul_13_1936,nibs_stage_1,3.2.3,60.00022888270905,
3,0,3,0,,,,,,,,,,,,,,,,,,,,,,,,,,,,,,,,,,,,,,,,01,00,English,A2,True,False,True,False,False,False,True,False,False,False,False,True,No,2,No,No,No,No,2020_Jul_13_1936,nibs_stage_1,3.2.3,60.00022888270905,
,,,,,,,,,,,,,,,,,,,,,,,,,,,,,,,,,,,,,,,,424.2132501602173,None," This experiment is finished. 
Thanks for your participation.",,,,,,,,,,,,,,,,,,,,,,,,,,,
