run.thisRepN,run.thisTrialN,run.thisN,run.thisIndex,QA_block.thisRepN,QA_block.thisTrialN,QA_block.thisN,QA_block.thisIndex,QA_trial.thisRepN,QA_trial.thisTrialN,QA_trial.thisN,QA_trial.thisIndex,fade_in_text.text,fade_in_text.started,fade_in_text.stopped,RS_intro_title.started,RS_intro_title.stopped,RS_intro_text.text,RS_intro_text.started,RS_intro_text.stopped,RS_intro_audio.started,RS_intro_audio.stopped,RS_rec_text.text,RS_rec_text.started,RS_rec_text.stopped,Pause_cont.started,Pause_cont.stopped,QA_intro_title.started,QA_intro_title.stopped,QA_intro_text.text,QA_intro_text.started,QA_intro_text.stopped,QA_intro_audio.started,QA_intro_audio.stopped,QA_intro_cont.started,QA_intro_cont.stopped,QA_rec_text.text,QA_rec_text.started,QA_rec_text.stopped,QA_rec_beep_hint.started,QA_rec_beep_hint.stopped,QA_rec_question.sen_text,QA_rec_question.cen_text,QA_rec_question.started,QA_rec_question.stopped,QA_rec_beep_start.started,QA_rec_beep_start.stopped,QA_rec_beep_end.started,QA_rec_beep_end.stopped,QA_rec_break.started,QA_rec_break.stopped,filename,participant,session,First language,German level,Full_screen,Instruction,Intro,Artifact,Cali_pre,Fade_in_out,Artifact_within,Resting_State,QA,Pause,Cali_post,End,Breakpoint_Cali_pre_trial,Breakpoint_Run,Breakpoint_RS_block,Breakpoint_QA_block,Breakpoint_QA_trial,Breakpoint_Cali_post_trial,date,expName,psychopyVersion,frameRate,
1,0,1,0,0,0,0,0,0,0,0,0,Please remain seated until further instruction via the earphone.,64.14352202415466,None,274.5711920261383,None," - Task: Keep seated and relaxed with either      
             opening or closing eyes                  
 - Beep sound with decreasing pitch: Block finish 
",274.5711920261383,None,274.57020902633667,None,"Please keep relaxed and close your eyes.
",297.5892539024353,477.5987808704376,480.98204493522644,None,495.99969482421875,None," - Task: Listen to the question& Speak out answer 
 - Melodious beep sound: Trial start              
 - Silent sound (blank): censored word            
 - Beep sound with increasing pitch: Rec. start   
 - Beep sound with decreasing pitch: Rec. finish  
",495.99969482421875,None,495.9814977645874,None,535.3682098388672,None,Listen to the question and speak out your answer!,538.935693025589,None,538.9338283538818,540.9351649284363,Wir sollen großen Wert auf die Sparsamkeit beim Wasser legen.,legen,540.3184926509857,543.9853279590607,544.4020395278931,545.4020798206329,555.5191886425018,None,556.9193179607391,557.9193708896637,./data/Subject_05/Session_00/Exp_data/2020_Jul_06_1136/rec_QA_run_01_block_000_trial_000.wav,05,00,English,B1,True,False,True,False,False,True,True,True,True,True,True,True,No,1,No,No,No,No,2020_Jul_06_1136,nibs_stage_1,3.2.3,59.98263861577998,
1,0,1,0,0,0,0,0,1,0,1,0,,,,,,,,,,,,,,,,,,,,,,,,,Listen to the question and speak out your answer!,559.9873788356781,None,559.9687440395355,561.9697008132935,"Wenn es wärmer wird, werde ich die Fenster öffnen.",öffnen,561.3528935909271,None,564.5364935398102,None,576.5538976192474,None,577.9539749622345,578.9540808200836,./data/Subject_05/Session_00/Exp_data/2020_Jul_06_1136/rec_QA_run_01_block_000_trial_001.wav,05,00,English,B1,True,False,True,False,False,True,True,True,True,True,True,True,No,1,No,No,No,No,2020_Jul_06_1136,nibs_stage_1,3.2.3,59.98263861577998,
1,0,1,0,0,0,0,0,2,0,2,0,,,,,,,,,,,,,,,,,,,,,,,,,Listen to the question and speak out your answer!,581.0208859443665,None,581.0035002231598,583.0041580200195,Ich beendete meine Arbeit und erhielt eine neue Aufgabe.,beendete,582.4041965007782,586.1209878921509,586.5212817192078,None,597.605007648468,None,599.0051159858704,600.0051448345184,./data/Subject_05/Session_00/Exp_data/2020_Jul_06_1136/rec_QA_run_01_block_000_trial_002.wav,05,00,English,B1,True,False,True,False,False,True,True,True,True,True,True,True,No,1,No,No,No,No,2020_Jul_06_1136,nibs_stage_1,3.2.3,59.98263861577998,
1,0,1,0,0,0,0,0,3,0,3,0,,,,,,,,,,,,,,,,,,,,,,,,,Listen to the question and speak out your answer!,602.0387828350067,None,602.0377490520477,604.0386748313904,Ich würde sofort meinen Job kündigen und nie mehr arbeiten.,kündigen,603.42200756073,None,607.3722004890442,608.3722770214081,618.6227695941925,619.6227338314056,620.0228350162506,621.0229170322418,./data/Subject_05/Session_00/Exp_data/2020_Jul_06_1136/rec_QA_run_01_block_000_trial_003.wav,05,00,English,B1,True,False,True,False,False,True,True,True,True,True,True,True,No,1,No,No,No,No,2020_Jul_06_1136,nibs_stage_1,3.2.3,59.98263861577998,
1,0,1,0,0,0,0,0,4,0,4,0,,,,,,,,,,,,,,,,,,,,,,,,,Listen to the question and speak out your answer!,623.0731029510498,None,623.0555212497711,625.0564517974854,Ich möchte mir ein Buch aus der Bibliothek leihen.,leihen,624.4397547245026,627.323264837265,627.7232556343079,None,639.6405436992645,640.640517950058,641.0405378341675,642.0407450199127,./data/Subject_05/Session_00/Exp_data/2020_Jul_06_1136/rec_QA_run_01_block_000_trial_004.wav,05,00,English,B1,True,False,True,False,False,True,True,True,True,True,True,True,No,1,No,No,No,No,2020_Jul_06_1136,nibs_stage_1,3.2.3,59.98263861577998,
1,0,1,0,0,0,0,0,5,0,5,0,,,,,,,,,,,,,,,,,,,,,,,,,Listen to the question and speak out your answer!,644.1089458465576,None,644.0899970531464,646.0908839702606,Wir werden jedes Paket innerhalb von fünf Arbeitstagen liefern.,liefern,645.4741547107697,None,649.7743926048279,650.7744538784027,660.6748805046082,None,662.0750470161438,663.0752859115601,./data/Subject_05/Session_00/Exp_data/2020_Jul_06_1136/rec_QA_run_01_block_000_trial_005.wav,05,00,English,B1,True,False,True,False,False,True,True,True,True,True,True,True,No,1,No,No,No,No,2020_Jul_06_1136,nibs_stage_1,3.2.3,59.98263861577998,
1,0,1,0,0,0,0,0,6,0,6,0,,,,,,,,,,,,,,,,,,,,,,,,,Listen to the question and speak out your answer!,665.1586558818817,None,665.1412360668182,667.1420569419861,Korn wird zur Herstellung von Mehl verwendet.,verwendet,666.5252635478973,669.3087248802185,669.6919887065887,None,681.7258095741272,None,683.1426639556885,None,./data/Subject_05/Session_00/Exp_data/2020_Jul_06_1136/rec_QA_run_01_block_000_trial_006.wav,05,00,English,B1,True,False,True,False,False,True,True,True,True,True,True,True,No,1,No,No,No,No,2020_Jul_06_1136,nibs_stage_1,3.2.3,59.98263861577998,
1,0,1,0,0,0,0,0,7,0,7,0,,,,,,,,,,,,,,,,,,,,,,,,,Listen to the question and speak out your answer!,686.1932859420776,None,686.1752660274506,688.1928708553314,"Wir brauchen Bretter, um ein Regal zu bauen.",bauen,687.5761516094208,None,690.7763266563416,None,702.7769656181335,703.7936778068542,704.1937370300293,None,./data/Subject_05/Session_00/Exp_data/2020_Jul_06_1136/rec_QA_run_01_block_000_trial_007.wav,05,00,English,B1,True,False,True,False,False,True,True,True,True,True,True,True,No,1,No,No,No,No,2020_Jul_06_1136,nibs_stage_1,3.2.3,59.98263861577998,
1,0,1,0,0,0,0,0,8,0,8,0,,,,,,,,,,,,,,,,,,,,,,,,,Listen to the question and speak out your answer!,707.2442059516907,None,707.2263832092285,709.243968963623,Die Meere sollte man nicht so leer fischen.,fischen,708.6272685527802,710.9443349838257,711.32741355896,712.3441498279572,723.8280146121979,None,725.2447760105133,None,./data/Subject_05/Session_00/Exp_data/2020_Jul_06_1136/rec_QA_run_01_block_000_trial_008.wav,05,00,English,B1,True,False,True,False,False,True,True,True,True,True,True,True,No,1,No,No,No,No,2020_Jul_06_1136,nibs_stage_1,3.2.3,59.98263861577998,
1,0,1,0,0,0,0,0,9,0,9,0,,,,,,,,,,,,,,,,,,,,,,,,,Listen to the question and speak out your answer!,728.2950229644775,None,728.277517080307,730.2950718402863,Viele Zettel sind an der Wand gehängt.,gehängt,729.6783676147461,None,732.2451355457306,None,744.8791935443878,None,746.2959289550781,None,./data/Subject_05/Session_00/Exp_data/2020_Jul_06_1136/rec_QA_run_01_block_000_trial_009.wav,05,00,English,B1,True,False,True,False,False,True,True,True,True,True,True,True,No,1,No,No,No,No,2020_Jul_06_1136,nibs_stage_1,3.2.3,59.98263861577998,
1,0,1,0,0,0,0,0,10,0,10,0,,,,,,,,,,,,,,,,,,,,,,,,,Listen to the question and speak out your answer!,749.3460259437561,None,749.3285782337189,751.3461799621582,"Er beschäftigt sich damit, diese kaputte Maschine zu reparieren.",reparieren,750.7294704914093,754.7132070064545,755.0963666439056,756.1130909919739,765.9302566051483,None,767.3470318317413,None,./data/Subject_05/Session_00/Exp_data/2020_Jul_06_1136/rec_QA_run_01_block_000_trial_010.wav,05,00,English,B1,True,False,True,False,False,True,True,True,True,True,True,True,No,1,No,No,No,No,2020_Jul_06_1136,nibs_stage_1,3.2.3,59.98263861577998,
1,0,1,0,0,0,0,0,11,0,11,0,,,,,,,,,,,,,,,,,,,,,,,,,Listen to the question and speak out your answer!,770.3979518413544,None,770.379711151123,772.3972709178925,Wo werden Sie Urlaub machen?,machen,771.7806806564331,None,773.8473546504974,None,786.964611530304,None,788.3814330101013,None,./data/Subject_05/Session_00/Exp_data/2020_Jul_06_1136/rec_QA_run_01_block_000_trial_011.wav,05,00,English,B1,True,False,True,False,False,True,True,True,True,True,True,True,No,1,No,No,No,No,2020_Jul_06_1136,nibs_stage_1,3.2.3,59.98263861577998,
1,0,1,0,0,0,0,0,12,0,12,0,,,,,,,,,,,,,,,,,,,,,,,,,Listen to the question and speak out your answer!,791.4489300251007,None,791.4141221046448,793.448383808136,"Ich würde sehr froh, wenn meine Familie 5 Millionen Euro gewinnen würde.",gewinnen,792.8316767215729,797.4819228649139,797.8652696609497,None,808.0325655937195,None,809.4493038654327,None,./data/Subject_05/Session_00/Exp_data/2020_Jul_06_1136/rec_QA_run_01_block_000_trial_012.wav,05,00,English,B1,True,False,True,False,False,True,True,True,True,True,True,True,No,1,No,No,No,No,2020_Jul_06_1136,nibs_stage_1,3.2.3,59.98263861577998,
1,0,1,0,0,0,0,0,13,0,13,0,,,,,,,,,,,,,,,,,,,,,,,,,Listen to the question and speak out your answer!,812.4660029411316,None,812.4486382007599,814.4662280082703,Der Autor beschrieb Sam als eine sehr nette Person.,beschrieb,813.8496437072754,None,817.4497225284576,None,829.0502564907074,None,830.4670958518982,None,./data/Subject_05/Session_00/Exp_data/2020_Jul_06_1136/rec_QA_run_01_block_000_trial_013.wav,05,00,English,B1,True,False,True,False,False,True,True,True,True,True,True,True,No,1,No,No,No,No,2020_Jul_06_1136,nibs_stage_1,3.2.3,59.98263861577998,
1,0,1,0,0,0,0,0,14,0,14,0,,,,,,,,,,,,,,,,,,,,,,,,,Listen to the question and speak out your answer!,833.5350589752197,None,833.5165047645569,835.5340139865875,Susi isst zum Frühstück gerne ein weiches Ei.,isst,834.8839817047119,837.9008469581604,838.3175015449524,None,850.0847647190094,None,851.5014219284058,None,./data/Subject_05/Session_00/Exp_data/2020_Jul_06_1136/rec_QA_run_01_block_000_trial_014.wav,05,00,English,B1,True,False,True,False,False,True,True,True,True,True,True,True,No,1,No,No,No,No,2020_Jul_06_1136,nibs_stage_1,3.2.3,59.98263861577998,
1,0,1,0,0,0,0,0,15,0,15,0,,,,,,,,,,,,,,,,,,,,,,,,,Listen to the question and speak out your answer!,854.5527768135071,None,854.5341122150421,856.5516119003296,"Wir entschieden uns dafür, mit dem Flugzeug nach Stockholm zu fliegen.",fliegen,855.9349796772003,860.1853199005127,860.5352456569672,None,871.1358165740967,872.1526119709015,872.5524559020996,None,./data/Subject_05/Session_00/Exp_data/2020_Jul_06_1136/rec_QA_run_01_block_000_trial_015.wav,05,00,English,B1,True,False,True,False,False,True,True,True,True,True,True,True,No,1,No,No,No,No,2020_Jul_06_1136,nibs_stage_1,3.2.3,59.98263861577998,
1,0,1,0,0,0,0,0,16,0,16,0,,,,,,,,,,,,,,,,,,,,,,,,,Listen to the question and speak out your answer!,875.6029767990112,None,875.5852041244507,877.6028180122375,Dort an der Ampel kannst du die Straße überqueren.,überqueren,876.986234664917,880.0031018257141,880.3529376983643,None,892.186895608902,None,893.6036410331726,None,./data/Subject_05/Session_00/Exp_data/2020_Jul_06_1136/rec_QA_run_01_block_000_trial_016.wav,05,00,English,B1,True,False,True,False,False,True,True,True,True,True,True,True,No,1,No,No,No,No,2020_Jul_06_1136,nibs_stage_1,3.2.3,59.98263861577998,
1,0,1,0,0,0,0,0,17,0,17,0,,,,,,,,,,,,,,,,,,,,,,,,,Listen to the question and speak out your answer!,896.6374568939209,None,896.6196403503418,898.6372368335724,"Die USA gewannen den Zweiten Weltkrieg, nachdem sie mehrere Jahre lang gekämpft hatten.",gewannen,898.0205357074738,903.4708268642426,903.8541715145111,None,913.2213196754456,914.2380588054657,914.6380848884583,None,./data/Subject_05/Session_00/Exp_data/2020_Jul_06_1136/rec_QA_run_01_block_000_trial_017.wav,05,00,English,B1,True,False,True,False,False,True,True,True,True,True,True,True,No,1,No,No,No,No,2020_Jul_06_1136,nibs_stage_1,3.2.3,59.98263861577998,
1,0,1,0,0,0,0,0,18,0,18,0,,,,,,,,,,,,,,,,,,,,,,,,,Listen to the question and speak out your answer!,917.688512802124,None,917.6707420349121,919.6884548664093,"Er benutzt Twitter, um mit anderen zu chatten.",benutzt,919.0716526508331,None,922.2718026638031,923.2885348796844,934.2724406719208,935.2892258167267,935.6892969608307,None,./data/Subject_05/Session_00/Exp_data/2020_Jul_06_1136/rec_QA_run_01_block_000_trial_018.wav,05,00,English,B1,True,False,True,False,False,True,True,True,True,True,True,True,No,1,No,No,No,No,2020_Jul_06_1136,nibs_stage_1,3.2.3,59.98263861577998,
1,0,1,0,0,0,0,0,19,0,19,0,,,,,,,,,,,,,,,,,,,,,,,,,Listen to the question and speak out your answer!,938.7236289978027,None,938.7052164077759,940.7227849960327,Die Mutter rührt in ihren Töpfen und Pfannen.,rührt,940.1060655117035,942.7895519733429,943.1728935241699,None,955.3068895339966,None,956.7236258983612,None,./data/Subject_05/Session_00/Exp_data/2020_Jul_06_1136/rec_QA_run_01_block_000_trial_019.wav,05,00,English,B1,True,False,True,False,False,True,True,True,True,True,True,True,No,1,No,No,No,No,2020_Jul_06_1136,nibs_stage_1,3.2.3,59.98263861577998,
1,0,1,0,0,0,0,0,20,0,20,0,,,,,,,,,,,,,,,,,,,,,,,,,Listen to the question and speak out your answer!,959.774974822998,None,959.7562961578369,961.7738978862762,In Wien tanzt man gerne Walzer.,tanzt,961.1571886539459,963.2739520072937,963.6573216915131,None,976.3579626083374,None,977.7747619152069,None,./data/Subject_05/Session_00/Exp_data/2020_Jul_06_1136/rec_QA_run_01_block_000_trial_020.wav,05,00,English,B1,True,False,True,False,False,True,True,True,True,True,True,True,No,1,No,No,No,No,2020_Jul_06_1136,nibs_stage_1,3.2.3,59.98263861577998,
1,0,1,0,0,0,0,0,21,0,21,0,,,,,,,,,,,,,,,,,,,,,,,,,Listen to the question and speak out your answer!,980.8263728618622,None,980.8074061870575,982.8249928951263,Willi möchte gerne an der Universität Informatik studieren.,studieren,982.2082974910736,None,986.4418566226959,None,997.4090986251831,None,998.8258259296417,None,./data/Subject_05/Session_00/Exp_data/2020_Jul_06_1136/rec_QA_run_01_block_000_trial_021.wav,05,00,English,B1,True,False,True,False,False,True,True,True,True,True,True,True,No,1,No,No,No,No,2020_Jul_06_1136,nibs_stage_1,3.2.3,59.98263861577998,
1,0,1,0,0,0,0,0,22,0,22,0,,,,,,,,,,,,,,,,,,,,,,,,,Listen to the question and speak out your answer!,1001.8762488365173,None,1001.8584952354431,1003.8762669563293,Das Volleyballspiel wird in einer Sporthalle ausgetragen.,ausgetragen,1003.2593824863434,None,1007.0596024990082,1008.0763168334961,1018.4601867198944,None,1019.8769338130951,None,./data/Subject_05/Session_00/Exp_data/2020_Jul_06_1136/rec_QA_run_01_block_000_trial_022.wav,05,00,English,B1,True,False,True,False,False,True,True,True,True,True,True,True,No,1,No,No,No,No,2020_Jul_06_1136,nibs_stage_1,3.2.3,59.98263861577998,
1,0,1,0,0,0,0,0,23,0,23,0,,,,,,,,,,,,,,,,,,,,,,,,,Listen to the question and speak out your answer!,1022.9109969139099,None,1022.8929584026337,1024.9105639457703,"Sie kann noch immer nicht schlafen, weil ihre Ohren wie Türglocken klingeln.",klingeln,1024.2938306331635,1028.6107249259949,1028.994000673294,1030.0108199119568,1039.4946537017822,1040.511344909668,1040.911414861679,None,./data/Subject_05/Session_00/Exp_data/2020_Jul_06_1136/rec_QA_run_01_block_000_trial_023.wav,05,00,English,B1,True,False,True,False,False,True,True,True,True,True,True,True,No,1,No,No,No,No,2020_Jul_06_1136,nibs_stage_1,3.2.3,59.98263861577998,
1,0,1,0,0,0,0,0,24,0,24,0,,,,,,,,,,,,,,,,,,,,,,,,,Listen to the question and speak out your answer!,1043.978926897049,None,1043.9439520835876,1045.9782919883728,Bitte nimm meinen Mantel mit in die Garderobe.,nimm,1045.3617105484009,None,1048.4284296035767,None,1060.5623815059662,None,1061.9792928695679,None,./data/Subject_05/Session_00/Exp_data/2020_Jul_06_1136/rec_QA_run_01_block_000_trial_024.wav,05,00,English,B1,True,False,True,False,False,True,True,True,True,True,True,True,No,1,No,No,No,No,2020_Jul_06_1136,nibs_stage_1,3.2.3,59.98263861577998,
1,0,1,0,0,0,0,0,,,,,,,,,,,,,,,,,,1065.9961228370667,None,,,,,,,,,,,,,,,,,,,,,,,,,,05,00,English,B1,True,False,True,False,False,True,True,True,True,True,True,True,No,1,No,No,No,No,2020_Jul_06_1136,nibs_stage_1,3.2.3,59.98263861577998,
1,0,1,0,1,0,1,0,0,0,0,0,,,,,,,,,,,,,,,,,,,,,,,,,Listen to the question and speak out your answer!,1092.2474999427795,None,1092.2128224372864,1094.2477548122406,Das Huhn legt jeden Tag ein Ei.,legt,1093.6308076381683,1095.780925989151,1096.164288520813,None,1108.831710577011,None,1110.2484560012817,None,./data/Subject_05/Session_00/Exp_data/2020_Jul_06_1136/rec_QA_run_01_block_001_trial_000.wav,05,00,English,B1,True,False,True,False,False,True,True,True,True,True,True,True,No,1,No,No,No,No,2020_Jul_06_1136,nibs_stage_1,3.2.3,59.98263861577998,
1,0,1,0,1,0,1,0,1,0,1,0,,,,,,,,,,,,,,,,,,,,,,,,,Listen to the question and speak out your answer!,1113.283294916153,None,1113.264464855194,1115.2820439338684,Der Unterricht dauert meistens bis um dreizehn Uhr.,dauert,1114.6652636528015,1117.7155559062958,1118.0655136108398,None,1129.8661456108093,None,1131.282791852951,None,./data/Subject_05/Session_00/Exp_data/2020_Jul_06_1136/rec_QA_run_01_block_001_trial_001.wav,05,00,English,B1,True,False,True,False,False,True,True,True,True,True,True,True,No,1,No,No,No,No,2020_Jul_06_1136,nibs_stage_1,3.2.3,59.98263861577998,
1,0,1,0,1,0,1,0,2,0,2,0,,,,,,,,,,,,,,,,,,,,,,,,,Listen to the question and speak out your answer!,1134.3502869606018,None,1134.3155241012573,1136.3497369289398,Bitte gib mir ein Stück Kuchen und eine Schale mit Obst.,gib,1135.7331147193909,1139.1166369915009,1139.4998977184296,None,1150.9338805675507,None,1152.3506059646606,None,./data/Subject_05/Session_00/Exp_data/2020_Jul_06_1136/rec_QA_run_01_block_001_trial_002.wav,05,00,English,B1,True,False,True,False,False,True,True,True,True,True,True,True,No,1,No,No,No,No,2020_Jul_06_1136,nibs_stage_1,3.2.3,59.98263861577998,
1,0,1,0,1,0,1,0,3,0,3,0,,,,,,,,,,,,,,,,,,,,,,,,,Listen to the question and speak out your answer!,1155.385559797287,None,1155.3665528297424,1157.3841779232025,Ein Gewitter besteht aus Blitz und Donner.,besteht,1156.7674646377563,None,1159.6342935562134,1160.6509280204773,1171.968273639679,None,1173.3850328922272,None,./data/Subject_05/Session_00/Exp_data/2020_Jul_06_1136/rec_QA_run_01_block_001_trial_003.wav,05,00,English,B1,True,False,True,False,False,True,True,True,True,True,True,True,No,1,No,No,No,No,2020_Jul_06_1136,nibs_stage_1,3.2.3,59.98263861577998,
1,0,1,0,1,0,1,0,4,0,4,0,,,,,,,,,,,,,,,,,,,,,,,,,Listen to the question and speak out your answer!,1176.4022209644318,None,1176.3843331336975,1178.401957988739,Der Sturm entlaubte alle Bäume in unserem Garten.,entlaubte,1177.7853105068207,None,1181.3520085811615,None,1192.9860684871674,None,1194.4028279781342,None,./data/Subject_05/Session_00/Exp_data/2020_Jul_06_1136/rec_QA_run_01_block_001_trial_004.wav,05,00,English,B1,True,False,True,False,False,True,True,True,True,True,True,True,No,1,No,No,No,No,2020_Jul_06_1136,nibs_stage_1,3.2.3,59.98263861577998,
1,0,1,0,1,0,1,0,5,0,5,0,,,,,,,,,,,,,,,,,,,,,,,,,Listen to the question and speak out your answer!,1197.436902999878,None,1197.4021182060242,1199.436486005783,Ich kann endlich den Namen dieser französischen Stadt aussprechen.,aussprechen,1198.8196675777435,1202.436548948288,1202.8198986053467,1203.836627960205,1214.0203895568848,None,1215.4372549057007,None,./data/Subject_05/Session_00/Exp_data/2020_Jul_06_1136/rec_QA_run_01_block_001_trial_005.wav,05,00,English,B1,True,False,True,False,False,True,True,True,True,True,True,True,No,1,No,No,No,No,2020_Jul_06_1136,nibs_stage_1,3.2.3,59.98263861577998,
1,0,1,0,1,0,1,0,6,0,6,0,,,,,,,,,,,,,,,,,,,,,,,,,Listen to the question and speak out your answer!,1218.4549088478088,None,1218.4365520477295,1220.4542548656464,"In Neuseeland und Irland ist es so grün, weil es besonders oft regnet.",regnet,1219.837459564209,None,1224.571032524109,1225.5877768993378,1235.0382716655731,None,1236.454999923706,None,./data/Subject_05/Session_00/Exp_data/2020_Jul_06_1136/rec_QA_run_01_block_001_trial_006.wav,05,00,English,B1,True,False,True,False,False,True,True,True,True,True,True,True,No,1,No,No,No,No,2020_Jul_06_1136,nibs_stage_1,3.2.3,59.98263861577998,
1,0,1,0,1,0,1,0,7,0,7,0,,,,,,,,,,,,,,,,,,,,,,,,,Listen to the question and speak out your answer!,1239.506068944931,None,1239.4876680374146,1241.5055170059204,Ich schnitt das Fleisch in Würfel.,schnitt,1240.888563632965,1242.8054368495941,1243.1886966228485,None,1256.0893955230713,None,1257.5061309337616,None,./data/Subject_05/Session_00/Exp_data/2020_Jul_06_1136/rec_QA_run_01_block_001_trial_007.wav,05,00,English,B1,True,False,True,False,False,True,True,True,True,True,True,True,No,1,No,No,No,No,2020_Jul_06_1136,nibs_stage_1,3.2.3,59.98263861577998,
1,0,1,0,1,0,1,0,8,0,8,0,,,,,,,,,,,,,,,,,,,,,,,,,Listen to the question and speak out your answer!,1260.5896289348602,None,1260.5554819107056,1262.589823961258,Er hat meine Sympathie gewonnen.,gewonnen,1261.9729986190796,1263.8564429283142,1264.2397994995117,None,1277.1738057136536,None,1278.5905649662018,None,./data/Subject_05/Session_00/Exp_data/2020_Jul_06_1136/rec_QA_run_01_block_001_trial_008.wav,05,00,English,B1,True,False,True,False,False,True,True,True,True,True,True,True,No,1,No,No,No,No,2020_Jul_06_1136,nibs_stage_1,3.2.3,59.98263861577998,
1,0,1,0,1,0,1,0,9,0,9,0,,,,,,,,,,,,,,,,,,,,,,,,,Listen to the question and speak out your answer!,1281.6079540252686,None,1281.5898730754852,1283.6075048446655,Farben machen das Leben bunt.,machen,1282.9907836914062,None,1285.5242466926575,None,1298.1915805339813,None,1299.6084899902344,None,./data/Subject_05/Session_00/Exp_data/2020_Jul_06_1136/rec_QA_run_01_block_001_trial_009.wav,05,00,English,B1,True,False,True,False,False,True,True,True,True,True,True,True,No,1,No,No,No,No,2020_Jul_06_1136,nibs_stage_1,3.2.3,59.98263861577998,
1,0,1,0,1,0,1,0,10,0,10,0,,,,,,,,,,,,,,,,,,,,,,,,,Listen to the question and speak out your answer!,1302.6585040092468,None,1302.64097905159,1304.6585910320282,Ich fühle die warme Sonne auf meiner Haut.,fühle,1304.0418026447296,1306.5588128566742,1306.942257642746,None,1319.242686510086,None,1320.6594488620758,None,./data/Subject_05/Session_00/Exp_data/2020_Jul_06_1136/rec_QA_run_01_block_001_trial_010.wav,05,00,English,B1,True,False,True,False,False,True,True,True,True,True,True,True,No,1,No,No,No,No,2020_Jul_06_1136,nibs_stage_1,3.2.3,59.98263861577998,
1,0,1,0,1,0,1,0,11,0,11,0,,,,,,,,,,,,,,,,,,,,,,,,,Listen to the question and speak out your answer!,1323.7266108989716,None,1323.7089948654175,1325.726289987564,Die USA haben viele Satelliten in den Weltraum geschickt.,geschickt,1325.10990858078,None,1329.0765445232391,None,1340.2772226333618,None,1341.727205991745,None,./data/Subject_05/Session_00/Exp_data/2020_Jul_06_1136/rec_QA_run_01_block_001_trial_011.wav,05,00,English,B1,True,False,True,False,False,True,True,True,True,True,True,True,No,1,No,No,No,No,2020_Jul_06_1136,nibs_stage_1,3.2.3,59.98263861577998,
1,0,1,0,1,0,1,0,12,0,12,0,,,,,,,,,,,,,,,,,,,,,,,,,Listen to the question and speak out your answer!,1344.7446658611298,None,1344.7266311645508,1346.74414396286,"Da Elena arbeiten muss, überlässt sie ihre Kinder seiner Mutter.",überlässt,1346.127433538437,None,1350.2609796524048,1351.277634859085,1361.3283126354218,None,1362.7450289726257,None,./data/Subject_05/Session_00/Exp_data/2020_Jul_06_1136/rec_QA_run_01_block_001_trial_012.wav,05,00,English,B1,True,False,True,False,False,True,True,True,True,True,True,True,No,1,No,No,No,No,2020_Jul_06_1136,nibs_stage_1,3.2.3,59.98263861577998,
1,0,1,0,1,0,1,0,13,0,13,0,,,,,,,,,,,,,,,,,,,,,,,,,Listen to the question and speak out your answer!,1365.795203924179,None,1365.7778952121735,1367.7952418327332,"Ich musste meine Mitgliedschaft kündigen, weil sie zu teuer war.",kündigen,1367.1785457134247,None,1371.1454186439514,None,1382.3793816566467,None,1383.7961869239807,None,./data/Subject_05/Session_00/Exp_data/2020_Jul_06_1136/rec_QA_run_01_block_001_trial_013.wav,05,00,English,B1,True,False,True,False,False,True,True,True,True,True,True,True,No,1,No,No,No,No,2020_Jul_06_1136,nibs_stage_1,3.2.3,59.98263861577998,
1,0,1,0,1,0,1,0,14,0,14,0,,,,,,,,,,,,,,,,,,,,,,,,,Listen to the question and speak out your answer!,1386.8630108833313,None,1386.8288662433624,1388.8630578517914,Ich hielt das Küken vorsichtig in beiden Händen.,hielt,1388.2463245391846,1391.196611881256,1391.5464816093445,1392.5633988380432,1403.4471325874329,None,1404.863785982132,None,./data/Subject_05/Session_00/Exp_data/2020_Jul_06_1136/rec_QA_run_01_block_001_trial_014.wav,05,00,English,B1,True,False,True,False,False,True,True,True,True,True,True,True,No,1,No,No,No,No,2020_Jul_06_1136,nibs_stage_1,3.2.3,59.98263861577998,
1,0,1,0,1,0,1,0,15,0,15,0,,,,,,,,,,,,,,,,,,,,,,,,,Listen to the question and speak out your answer!,1407.8820388317108,None,1407.8633420467377,1409.880882024765,Ich nehme zwei Bücher aus dem Regal.,nehme,1409.2641324996948,None,1412.03089761734,1413.0476229190826,1424.4649896621704,None,1425.8816540241241,None,./data/Subject_05/Session_00/Exp_data/2020_Jul_06_1136/rec_QA_run_01_block_001_trial_015.wav,05,00,English,B1,True,False,True,False,False,True,True,True,True,True,True,True,No,1,No,No,No,No,2020_Jul_06_1136,nibs_stage_1,3.2.3,59.98263861577998,
1,0,1,0,1,0,1,0,16,0,16,0,,,,,,,,,,,,,,,,,,,,,,,,,Listen to the question and speak out your answer!,1428.9336969852448,None,1428.9143171310425,1430.9319159984589,Trotz meines Verbots hat er sein Auto vor meinem Haus geparkt.,geparkt,1430.315177679062,1434.0320999622345,1434.4154255390167,None,1445.51602768898,None,1446.932711839676,None,./data/Subject_05/Session_00/Exp_data/2020_Jul_06_1136/rec_QA_run_01_block_001_trial_016.wav,05,00,English,B1,True,False,True,False,False,True,True,True,True,True,True,True,No,1,No,No,No,No,2020_Jul_06_1136,nibs_stage_1,3.2.3,59.98263861577998,
1,0,1,0,1,0,1,0,17,0,17,0,,,,,,,,,,,,,,,,,,,,,,,,,Listen to the question and speak out your answer!,1449.9996988773346,None,1449.9653940200806,1451.9996960163116,Mit dieser neuen Kamera kann man bei jedem Licht fotografieren.,fotografieren,1451.382975578308,1455.166482925415,1455.5498836040497,1456.5665979385376,1466.5838177204132,None,1468.0005338191986,None,./data/Subject_05/Session_00/Exp_data/2020_Jul_06_1136/rec_QA_run_01_block_001_trial_017.wav,05,00,English,B1,True,False,True,False,False,True,True,True,True,True,True,True,No,1,No,No,No,No,2020_Jul_06_1136,nibs_stage_1,3.2.3,59.98263861577998,
1,0,1,0,1,0,1,0,18,0,18,0,,,,,,,,,,,,,,,,,,,,,,,,,Listen to the question and speak out your answer!,1471.0347018241882,None,1470.9998531341553,1473.0343990325928,Auf der Youtube kann man Videos anschauen.,anschauen,1472.384087562561,1474.9675288200378,1475.3844046592712,None,1487.5849125385284,None,1489.0016298294067,None,./data/Subject_05/Session_00/Exp_data/2020_Jul_06_1136/rec_QA_run_01_block_001_trial_018.wav,05,00,English,B1,True,False,True,False,False,True,True,True,True,True,True,True,No,1,No,No,No,No,2020_Jul_06_1136,nibs_stage_1,3.2.3,59.98263861577998,
1,0,1,0,1,0,1,0,19,0,19,0,,,,,,,,,,,,,,,,,,,,,,,,,Listen to the question and speak out your answer!,1492.0695810317993,None,1492.0509688854218,1494.0687329769135,Ihre Kleider riechen nach Rauch.,riechen,1493.4521086215973,1495.6353888511658,1496.0186536312103,1497.035434961319,1508.6527864933014,None,1510.0697448253632,None,./data/Subject_05/Session_00/Exp_data/2020_Jul_06_1136/rec_QA_run_01_block_001_trial_019.wav,05,00,English,B1,True,False,True,False,False,True,True,True,True,True,True,True,No,1,No,No,No,No,2020_Jul_06_1136,nibs_stage_1,3.2.3,59.98263861577998,
1,0,1,0,1,0,1,0,20,0,20,0,,,,,,,,,,,,,,,,,,,,,,,,,Listen to the question and speak out your answer!,1513.103194952011,None,1513.0860087871552,1515.1029818058014,"Wir brauchen Obst und Gemüse, also muss ich auf den Markt gehen.",gehen,1514.4865205287933,None,1518.653404712677,None,1529.6871914863586,None,1531.1041538715363,None,./data/Subject_05/Session_00/Exp_data/2020_Jul_06_1136/rec_QA_run_01_block_001_trial_020.wav,05,00,English,B1,True,False,True,False,False,True,True,True,True,True,True,True,No,1,No,No,No,No,2020_Jul_06_1136,nibs_stage_1,3.2.3,59.98263861577998,
1,0,1,0,1,0,1,0,21,0,21,0,,,,,,,,,,,,,,,,,,,,,,,,,Listen to the question and speak out your answer!,1534.1717069149017,None,1534.1365461349487,1536.1707878112793,In den großen Ferien wandern wir gerne in den Bergen.,wandern,1535.5207505226135,None,1539.2542915344238,1540.2710008621216,1550.7215456962585,1551.7385258674622,1552.1385760307312,None,./data/Subject_05/Session_00/Exp_data/2020_Jul_06_1136/rec_QA_run_01_block_001_trial_021.wav,05,00,English,B1,True,False,True,False,False,True,True,True,True,True,True,True,No,1,No,No,No,No,2020_Jul_06_1136,nibs_stage_1,3.2.3,59.98263861577998,
1,0,1,0,1,0,1,0,22,0,22,0,,,,,,,,,,,,,,,,,,,,,,,,,Listen to the question and speak out your answer!,1555.2054588794708,None,1555.1710901260376,1557.2052369117737,"Im Unterricht habe ich das Wichtige notiert, was der Lehrer gesagt.",notiert,1556.5885314941406,1560.6720888614655,1561.0554106235504,None,1571.789306640625,None,1573.2063808441162,None,./data/Subject_05/Session_00/Exp_data/2020_Jul_06_1136/rec_QA_run_01_block_001_trial_022.wav,05,00,English,B1,True,False,True,False,False,True,True,True,True,True,True,True,No,1,No,No,No,No,2020_Jul_06_1136,nibs_stage_1,3.2.3,59.98263861577998,
1,0,1,0,1,0,1,0,23,0,23,0,,,,,,,,,,,,,,,,,,,,,,,,,Listen to the question and speak out your answer!,1576.2412128448486,None,1576.2220559120178,1578.2396728992462,"Nur wenn mein Haar schmutzig ist, werde ich es bürsten.",bürsten,1577.6229605674744,None,1581.0567636489868,None,1592.8237626552582,None,1594.240515947342,None,./data/Subject_05/Session_00/Exp_data/2020_Jul_06_1136/rec_QA_run_01_block_001_trial_023.wav,05,00,English,B1,True,False,True,False,False,True,True,True,True,True,True,True,No,1,No,No,No,No,2020_Jul_06_1136,nibs_stage_1,3.2.3,59.98263861577998,
1,0,1,0,1,0,1,0,24,0,24,0,,,,,,,,,,,,,,,,,,,,,,,,,Listen to the question and speak out your answer!,1597.308259010315,None,1597.2731702327728,1599.3077538013458,"Ich nehme nie Dinge, die anderen gehören.",gehören,1598.6576635837555,1601.2078189849854,1601.5909106731415,None,1613.8582246303558,1614.8749449253082,1615.275197982788,None,./data/Subject_05/Session_00/Exp_data/2020_Jul_06_1136/rec_QA_run_01_block_001_trial_024.wav,05,00,English,B1,True,False,True,False,False,True,True,True,True,True,True,True,No,1,No,No,No,No,2020_Jul_06_1136,nibs_stage_1,3.2.3,59.98263861577998,
