run.thisRepN,run.thisTrialN,run.thisN,run.thisIndex,artifact_trial.thisRepN,artifact_trial.thisTrialN,artifact_trial.thisN,artifact_trial.thisIndex,QA_block.thisRepN,QA_block.thisTrialN,QA_block.thisN,QA_block.thisIndex,QA_trial.thisRepN,QA_trial.thisTrialN,QA_trial.thisN,QA_trial.thisIndex,fade_in_text.text,fade_in_text.started,fade_in_text.stopped,Artifact_intro_title.started,Artifact_intro_title.stopped,Artifact_intro_text.text,Artifact_intro_text.started,Artifact_intro_text.stopped,Artifact_intro_audio.started,Artifact_intro_audio.stopped,Artifact_intro_cont.started,Artifact_intro_cont.stopped,Artifact_rec_text.text,Artifact_rec_text.started,Artifact_rec_text.stopped,Artifact_rec_beep_hint.started,Artifact_rec_beep_hint.stopped,Artifact_rec_action.started,Artifact_rec_action.stopped,Artifact_rec_beep_start.started,Artifact_rec_beep_start.stopped,Artifact_rec_recording.started,Artifact_rec_recording.stopped,Artifact_rec_beep_end.started,Artifact_rec_beep_end.stopped,Artifact_rec_break.started,Artifact_rec_break.stopped,RS_intro_title.started,RS_intro_title.stopped,RS_intro_text.text,RS_intro_text.started,RS_intro_text.stopped,RS_intro_audio.started,RS_intro_audio.stopped,RS_rec_text.text,RS_rec_text.started,RS_rec_text.stopped,Pause_cont.started,Pause_cont.stopped,QA_intro_title.started,QA_intro_title.stopped,QA_intro_text.text,QA_intro_text.started,QA_intro_text.stopped,QA_intro_audio.started,QA_intro_audio.stopped,QA_intro_cont.started,QA_intro_cont.stopped,QA_rec_text.text,QA_rec_text.started,QA_rec_text.stopped,QA_rec_beep_hint.started,QA_rec_beep_hint.stopped,QA_rec_question.sen_text,QA_rec_question.cen_text,QA_rec_question.started,QA_rec_question.stopped,QA_rec_beep_start.started,QA_rec_beep_start.stopped,QA_rec_beep_end.started,QA_rec_beep_end.stopped,QA_rec_break.started,QA_rec_break.stopped,filename,fade_out_text.text,fade_out_text.started,fade_out_text.stopped,participant,session,First language,German level,Full_screen,Instruction,Intro,Artifact,Cali_pre,Fade_in_out,Artifact_within,Resting_State,QA,Pause,Cali_post,End,Breakpoint_Cali_pre_trial,Breakpoint_Run,Breakpoint_RS_block,Breakpoint_QA_block,Breakpoint_QA_trial,Breakpoint_Cali_post_trial,date,expName,psychopyVersion,frameRate,
2,0,2,0,0,0,0,0,,,,,,,,,Please remain seated until further instruction via the earphone.,110.2808210849762,None,112.31402707099915,139.34897089004517,"  - Task: Artifacts collection   
  - Please follow audio instruction              
",112.31402707099915,139.34897089004517,112.29880998134612,None,138.6986620426178,None,,141.61571288108826,None,141.60031387805938,143.6156919002533,142.98264667987823,None,146.38252351284027,None,147.78265664577484,157.78316807746887,158.18321249485015,159.1832890510559,159.58328104019165,160.58326292037964,,,,,,,,,,,,,,,,,,,,,,,,,,,,,,,,,,,,,,,,,05,00,English,B1,True,False,True,False,False,True,True,True,True,True,True,True,No,2,No,No,No,No,2020_Jul_06_1208,nibs_stage_1,3.2.3,60.05469535261321,
2,0,2,0,1,0,1,0,,,,,,,,,,,,,,,,,,,,,,163.63385605812073,None,163.6180059671402,165.63359904289246,165.0001394510269,None,168.40033457279205,None,169.80040667057037,179.8010458946228,180.20099852085113,181.20103788375854,181.60109686851501,182.60115385055542,,,,,,,,,,,,,,,,,,,,,,,,,,,,,,,,,,,,,,,,,05,00,English,B1,True,False,True,False,False,True,True,True,True,True,True,True,No,2,No,No,No,No,2020_Jul_06_1208,nibs_stage_1,3.2.3,60.05469535261321,
2,0,2,0,2,0,2,0,,,,,,,,,,,,,,,,,,,,,,185.65170097351074,None,185.6359238386154,187.65134191513062,187.01797363758087,None,190.4182326555252,None,191.81827948093414,201.8189160823822,202.21925852298736,203.2190420627594,203.65218687057495,204.65240097045898,,,,,,,,,,,,,,,,,,,,,,,,,,,,,,,,,,,,,,,,,05,00,English,B1,True,False,True,False,False,True,True,True,True,True,True,True,No,2,No,No,No,No,2020_Jul_06_1208,nibs_stage_1,3.2.3,60.05469535261321,
2,0,2,0,3,0,3,0,,,,,,,,,,,,,,,,,,,,,,207.6693549156189,None,207.65385196208953,209.66935801506042,209.03605053424835,None,212.43628046512603,None,213.8362674474716,223.83683586120605,224.23680565357208,225.23685503005981,225.6533648967743,226.653666973114,,,,,,,,,,,,,,,,,,,,,,,,,,,,,,,,,,,,,,,,,05,00,English,B1,True,False,True,False,False,True,True,True,True,True,True,True,No,2,No,No,No,No,2020_Jul_06_1208,nibs_stage_1,3.2.3,60.05469535261321,
2,0,2,0,4,0,4,0,,,,,,,,,,,,,,,,,,,,,,229.68716502189636,None,229.67169592380523,231.72033095359802,231.0703265428543,None,234.47049162387847,None,235.8705785036087,245.88775897026062,246.27111647129058,None,247.68783903121948,248.72124004364014,,,,,,,,,,,,,,,,,,,,,,,,,,,,,,,,,,,,,,,,,05,00,English,B1,True,False,True,False,False,True,True,True,True,True,True,True,No,2,No,No,No,No,2020_Jul_06_1208,nibs_stage_1,3.2.3,60.05469535261321,
2,0,2,0,5,0,5,0,,,,,,,,,,,,,,,,,,,,,,251.72164106369019,None,251.7059228181839,253.75496196746826,253.10479066371917,None,256.5049736261368,None,257.9050526380539,267.92224287986755,268.30559251308443,None,269.7223289012909,270.75571393966675,,,,,,,,,,,,,,,,,,,,,,,,,,,,,,,,,,,,,,,,,05,00,English,B1,True,False,True,False,False,True,True,True,True,True,True,True,No,2,No,No,No,No,2020_Jul_06_1208,nibs_stage_1,3.2.3,60.05469535261321,
2,0,2,0,6,0,6,0,,,,,,,,,,,,,,,,,,,,,,273.7563350200653,None,273.740420794487,275.78927206993103,275.1392986536026,None,278.53962061405184,None,279.93954465389254,289.95674085617065,290.34010646343233,None,291.7568290233612,292.79031586647034,,,,,,,,,,,,,,,,,,,,,,,,,,,,,,,,,,,,,,,,,05,00,English,B1,True,False,True,False,False,True,True,True,True,True,True,True,No,2,No,No,No,No,2020_Jul_06_1208,nibs_stage_1,3.2.3,60.05469535261321,
2,0,2,0,7,0,7,0,,,,,,,,,,,,,,,,,,,,,,295.79068207740784,None,295.775008893013,297.82381105422974,297.1738035440445,300.1906008720398,300.57398364543917,None,301.9740464448929,311.9912030696869,312.374604678154,313.39130187034607,313.7913239002228,314.82472491264343,,,,,,,,,,,,,,,,,,,,,,,,,,,,,,,,,,,,,,,,,05,00,English,B1,True,False,True,False,False,True,True,True,True,True,True,True,No,2,No,No,No,No,2020_Jul_06_1208,nibs_stage_1,3.2.3,60.05469535261321,
2,0,2,0,8,0,8,0,,,,,,,,,,,,,,,,,,,,,,317.8251428604126,None,317.80933997631075,319.8583080768585,319.20836756229403,322.2251229286194,322.6084666013718,None,324.00853464603426,334.02572202682495,334.40909764766695,335.42579889297485,335.8258168697357,336.8592300415039,,,,,,,,,,,,,,,,,,,,,,,,,,,,,,,,,,,,,,,,,05,00,English,B1,True,False,True,False,False,True,True,True,True,True,True,True,No,2,No,No,No,No,2020_Jul_06_1208,nibs_stage_1,3.2.3,60.05469535261321,
2,0,2,0,9,0,9,0,,,,,,,,,,,,,,,,,,,,,,339.8599798679352,None,339.8440098524094,341.89280104637146,341.2427985429764,344.259605884552,344.6429645776749,345.6596779823303,346.0430426359177,356.06022691726685,356.4436785936356,None,357.86031889915466,358.89370107650757,,,,,,,,,,,,,,,,,,,,,,,,,,,,,,,,,,,,,,,,,05,00,English,B1,True,False,True,False,False,True,True,True,True,True,True,True,No,2,No,No,No,No,2020_Jul_06_1208,nibs_stage_1,3.2.3,60.05469535261321,
2,0,2,0,10,0,10,0,,,,,,,,,,,,,,,,,,,,,,361.89409494400024,None,361.87840793132784,363.9274220466614,363.2772745847702,None,366.67747662067416,None,368.0774466753006,378.09473395347595,378.4780986070633,None,379.8949029445648,380.92819690704346,,,,,,,,,,,,,,,,,,,,,,,,,,,,,,,,,,,,,,,,,05,00,English,B1,True,False,True,False,False,True,True,True,True,True,True,True,No,2,No,No,No,No,2020_Jul_06_1208,nibs_stage_1,3.2.3,60.05469535261321,
2,0,2,0,11,0,11,0,,,,,,,,,,,,,,,,,,,,,,383.92837595939636,None,383.9129428625107,385.9617998600006,385.3117775678635,None,388.7119464635849,None,390.1120316743851,400.12925386428833,400.5126025438309,401.5292980670929,401.92933201789856,402.96269702911377,,,,,,,,,,,,,,,,,,,,,,,,,,,,,,,,,,,,,,,,,05,00,English,B1,True,False,True,False,False,True,True,True,True,True,True,True,No,2,No,No,No,No,2020_Jul_06_1208,nibs_stage_1,3.2.3,60.05469535261321,
2,0,2,0,12,0,12,0,,,,,,,,,,,,,,,,,,,,,,405.96360993385315,None,405.9474098443985,407.99630093574524,407.34628961086275,410.3630840778351,410.74646351337435,411.76323890686035,412.1465215444565,422.1637179851532,422.54733250141146,423.56387400627136,423.96391201019287,424.997300863266,,,,,,,,,,,,,,,,,,,,,,,,,,,,,,,,,,,,,,,,,05,00,English,B1,True,False,True,False,False,True,True,True,True,True,True,True,No,2,No,No,No,No,2020_Jul_06_1208,nibs_stage_1,3.2.3,60.05469535261321,
2,0,2,0,13,0,13,0,,,,,,,,,,,,,,,,,,,,,,427.99733090400696,None,427.9819049596787,430.03087401390076,429.3809215784073,None,432.781032538414,None,434.1812646150589,444.19829988479614,444.5815756082535,445.5983729362488,445.9983880519867,447.03178787231445,,,,,,,,,,,,,,,,,,,,,,,,,,,,,,,,,,,,,,,,,05,00,English,B1,True,False,True,False,False,True,True,True,True,True,True,True,No,2,No,No,No,No,2020_Jul_06_1208,nibs_stage_1,3.2.3,60.05469535261321,
2,0,2,0,14,0,14,0,,,,,,,,,,,,,,,,,,,,,,450.0318739414215,None,450.01640675067904,452.06542587280273,451.4153475522995,None,454.8155286073685,455.8323359489441,456.2156066656113,466.23280096054077,466.6162354707718,None,468.0327959060669,469.0662479400635,,,,,,,,,,,,,,,,,,,,,,,,,,,,,,,,,,,,,,,,,05,00,English,B1,True,False,True,False,False,True,True,True,True,True,True,True,No,2,No,No,No,No,2020_Jul_06_1208,nibs_stage_1,3.2.3,60.05469535261321,
2,0,2,0,,,,,0,0,0,0,0,0,0,0,,,,,,,,,,,,,,,,,,,,,,,,,,,,679.5109798908234,None," - Task: Keep seated and relaxed with either      
             opening or closing eyes                  
 - Beep sound with decreasing pitch: Block finish 
",679.5109798908234,None,679.4951683998108,None,"Please keep relaxed and close your eyes.
",702.5621008872986,882.6046710014343,885.9714920520782,None,900.0060679912567,None," - Task: Listen to the question& Speak out answer 
 - Melodious beep sound: Trial start              
 - Silent sound (blank): censored word            
 - Beep sound with increasing pitch: Rec. start   
 - Beep sound with decreasing pitch: Rec. finish  
",900.0060679912567,None,899.9909080982209,None,939.4243240356445,None,Listen to the question and speak out your answer!,942.7411608695984,None,942.7263171195984,944.7745819091797,"Das Fleisch wird klein geschnitten, und dann in der Pfanne gebraten.",gebraten,944.1245605707169,947.9081299304962,948.2914495229721,None,959.3253645658493,None,960.7421250343323,None,./data/Subject_05/Session_00/Exp_data/2020_Jul_06_1208/rec_QA_run_02_block_000_trial_000.wav,,,,05,00,English,B1,True,False,True,False,False,True,True,True,True,True,True,True,No,2,No,No,No,No,2020_Jul_06_1208,nibs_stage_1,3.2.3,60.05469535261321,
2,0,2,0,,,,,0,0,0,0,1,0,1,0,,,,,,,,,,,,,,,,,,,,,,,,,,,,,,,,,,,,,,,,,,,,,,,,,Listen to the question and speak out your answer!,963.809161901474,None,963.7934271574021,965.8423578739166,In der Parfümerie riecht es sehr stark nach verschiedenen Düften.,riecht,965.1923255681992,None,969.3592076063156,None,980.3931364774704,None,981.8098940849304,None,./data/Subject_05/Session_00/Exp_data/2020_Jul_06_1208/rec_QA_run_02_block_000_trial_001.wav,,,,05,00,English,B1,True,False,True,False,False,True,True,True,True,True,True,True,No,2,No,No,No,No,2020_Jul_06_1208,nibs_stage_1,3.2.3,60.05469535261321,
2,0,2,0,,,,,0,0,0,0,2,0,2,0,,,,,,,,,,,,,,,,,,,,,,,,,,,,,,,,,,,,,,,,,,,,,,,,,Listen to the question and speak out your answer!,984.8769888877869,None,984.8446053981781,986.8768050670624,In Österreich darf ein Präsident sechs Jahre regieren.,regieren,986.2601046323776,989.6105599403381,989.9936415910721,991.0103468894958,1001.4609346151352,None,1002.8776578903198,None,./data/Subject_05/Session_00/Exp_data/2020_Jul_06_1208/rec_QA_run_02_block_000_trial_002.wav,,,,05,00,English,B1,True,False,True,False,False,True,True,True,True,True,True,True,No,2,No,No,No,No,2020_Jul_06_1208,nibs_stage_1,3.2.3,60.05469535261321,
2,0,2,0,,,,,0,0,0,0,3,0,3,0,,,,,,,,,,,,,,,,,,,,,,,,,,,,,,,,,,,,,,,,,,,,,,,,,Listen to the question and speak out your answer!,1005.9116680622101,None,1005.8957061052323,1007.9446470737457,"Obst sollte man täglich essen, weil es wegen den Vitaminen sehr gesund ist.",essen,1007.2945525407791,None,1012.1281475782395,None,1022.495434498787,1023.512069940567,1023.9121088981628,None,./data/Subject_05/Session_00/Exp_data/2020_Jul_06_1208/rec_QA_run_02_block_000_trial_003.wav,,,,05,00,English,B1,True,False,True,False,False,True,True,True,True,True,True,True,No,2,No,No,No,No,2020_Jul_06_1208,nibs_stage_1,3.2.3,60.05469535261321,
2,0,2,0,,,,,0,0,0,0,4,0,4,0,,,,,,,,,,,,,,,,,,,,,,,,,,,,,,,,,,,,,,,,,,,,,,,,,Listen to the question and speak out your answer!,1026.979572057724,None,1026.9468893527983,1028.9791960716248,"Ich versuche, jede Woche ein Buch zu lesen.",lesen,1028.3624064683913,None,1031.6959194898604,1032.7126369476318,1043.5633005857467,None,1044.9799468517303,None,./data/Subject_05/Session_00/Exp_data/2020_Jul_06_1208/rec_QA_run_02_block_000_trial_004.wav,,,,05,00,English,B1,True,False,True,False,False,True,True,True,True,True,True,True,No,2,No,No,No,No,2020_Jul_06_1208,nibs_stage_1,3.2.3,60.05469535261321,
2,0,2,0,,,,,0,0,0,0,5,0,5,0,,,,,,,,,,,,,,,,,,,,,,,,,,,,,,,,,,,,,,,,,,,,,,,,,Listen to the question and speak out your answer!,1048.0135719776154,None,1047.9980060338974,1050.0467998981476,Ich kann das Buch nirgends finden.,finden,1049.3969385385512,None,1051.663646674156,None,1064.5976395368575,None,1066.014281988144,None,./data/Subject_05/Session_00/Exp_data/2020_Jul_06_1208/rec_QA_run_02_block_000_trial_005.wav,,,,05,00,English,B1,True,False,True,False,False,True,True,True,True,True,True,True,No,2,No,No,No,No,2020_Jul_06_1208,nibs_stage_1,3.2.3,60.05469535261321,
2,0,2,0,,,,,0,0,0,0,6,0,6,0,,,,,,,,,,,,,,,,,,,,,,,,,,,,,,,,,,,,,,,,,,,,,,,,,Listen to the question and speak out your answer!,1069.031317949295,None,1069.0157913684843,1071.0645790100098,"Es ist vorstellbar, dass er diese schwierige Prüfung nicht bestehen kann. ",bestehen,1070.4145385980605,None,1074.948113656044,None,1085.6153585672378,None,1087.0320808887482,None,./data/Subject_05/Session_00/Exp_data/2020_Jul_06_1208/rec_QA_run_02_block_000_trial_006.wav,,,,05,00,English,B1,True,False,True,False,False,True,True,True,True,True,True,True,No,2,No,No,No,No,2020_Jul_06_1208,nibs_stage_1,3.2.3,60.05469535261321,
2,0,2,0,,,,,0,0,0,0,7,0,7,0,,,,,,,,,,,,,,,,,,,,,,,,,,,,,,,,,,,,,,,,,,,,,,,,,Listen to the question and speak out your answer!,1090.09934091568,None,1090.083548951149,1092.1323599815369,Im Sommer gehen Alice und Tom gerne in die Bäder schwimmen.,schwimmen,1091.4823186159133,None,1095.2491974592208,None,1106.649801468849,None,1108.0665390491486,1109.099916934967,./data/Subject_05/Session_00/Exp_data/2020_Jul_06_1208/rec_QA_run_02_block_000_trial_007.wav,,,,05,00,English,B1,True,False,True,False,False,True,True,True,True,True,True,True,No,2,No,No,No,No,2020_Jul_06_1208,nibs_stage_1,3.2.3,60.05469535261321,
2,0,2,0,,,,,0,0,0,0,8,0,8,0,,,,,,,,,,,,,,,,,,,,,,,,,,,,,,,,,,,,,,,,,,,,,,,,,Listen to the question and speak out your answer!,1111.1670758724213,None,1111.1512610197067,1113.2002229690552,Taktlose Fragen machen mich wütend.,machen,1112.5501024484633,None,1115.4835645914077,None,1127.75103662014,None,1129.1676590442657,None,./data/Subject_05/Session_00/Exp_data/2020_Jul_06_1208/rec_QA_run_02_block_000_trial_008.wav,,,,05,00,English,B1,True,False,True,False,False,True,True,True,True,True,True,True,No,2,No,No,No,No,2020_Jul_06_1208,nibs_stage_1,3.2.3,60.05469535261321,
2,0,2,0,,,,,0,0,0,0,9,0,9,0,,,,,,,,,,,,,,,,,,,,,,,,,,,,,,,,,,,,,,,,,,,,,,,,,Listen to the question and speak out your answer!,1132.268147945404,None,1132.2357505798338,1134.2680969238281,"Man nennt Klima-Wandel , dass die Temperaturen auf unserer Erde steigen.",steigen,1133.6512026548385,None,1138.484908556938,None,1148.8520686388015,None,1150.2687330245972,None,./data/Subject_05/Session_00/Exp_data/2020_Jul_06_1208/rec_QA_run_02_block_000_trial_009.wav,,,,05,00,English,B1,True,False,True,False,False,True,True,True,True,True,True,True,No,2,No,No,No,No,2020_Jul_06_1208,nibs_stage_1,3.2.3,60.05469535261321,
2,0,2,0,,,,,0,0,0,0,10,0,10,0,,,,,,,,,,,,,,,,,,,,,,,,,,,,,,,,,,,,,,,,,,,,,,,,,Listen to the question and speak out your answer!,1153.3040850162506,None,1153.2867981672287,1155.3357570171356,Der ganze Kursus besichtigte die Ausstellung.,besichtigte,1154.6856565237044,1157.5357899665833,1157.9191574811935,1158.9358649253845,1169.8865384817123,None,1171.3031840324402,None,./data/Subject_05/Session_00/Exp_data/2020_Jul_06_1208/rec_QA_run_02_block_000_trial_010.wav,,,,05,00,English,B1,True,False,True,False,False,True,True,True,True,True,True,True,No,2,No,No,No,No,2020_Jul_06_1208,nibs_stage_1,3.2.3,60.05469535261321,
2,0,2,0,,,,,0,0,0,0,11,0,11,0,,,,,,,,,,,,,,,,,,,,,,,,,,,,,,,,,,,,,,,,,,,,,,,,,Listen to the question and speak out your answer!,1174.40500497818,None,1174.3879281282425,1176.4367969036102,Können Sie fünfzig Euro wechseln?,wechseln,1175.7868385076522,None,1178.3536264657973,None,1190.971010661125,None,1192.3876450061798,None,./data/Subject_05/Session_00/Exp_data/2020_Jul_06_1208/rec_QA_run_02_block_000_trial_011.wav,,,,05,00,English,B1,True,False,True,False,False,True,True,True,True,True,True,True,No,2,No,No,No,No,2020_Jul_06_1208,nibs_stage_1,3.2.3,60.05469535261321,
2,0,2,0,,,,,0,0,0,0,12,0,12,0,,,,,,,,,,,,,,,,,,,,,,,,,,,,,,,,,,,,,,,,,,,,,,,,,Listen to the question and speak out your answer!,1195.4545440673828,None,1195.4224683761595,1197.4545638561249,Howard Carter hat viele Schätze im Grab von Tutanchamun gefunden.,gefunden,1196.8379244565963,None,1201.2380895376205,None,1212.0385834932326,None,1213.4554069042206,None,./data/Subject_05/Session_00/Exp_data/2020_Jul_06_1208/rec_QA_run_02_block_000_trial_012.wav,,,,05,00,English,B1,True,False,True,False,False,True,True,True,True,True,True,True,No,2,No,No,No,No,2020_Jul_06_1208,nibs_stage_1,3.2.3,60.05469535261321,
2,0,2,0,,,,,0,0,0,0,13,0,13,0,,,,,,,,,,,,,,,,,,,,,,,,,,,,,,,,,,,,,,,,,,,,,,,,,Listen to the question and speak out your answer!,1216.4895510673523,None,1216.4567934989927,1218.4891428947449,Ich höre sie den Namen Sam rufen.,rufen,1217.8723356485366,None,1220.505792593956,None,1233.0397855997085,None,1234.4565069675446,None,./data/Subject_05/Session_00/Exp_data/2020_Jul_06_1208/rec_QA_run_02_block_000_trial_013.wav,,,,05,00,English,B1,True,False,True,False,False,True,True,True,True,True,True,True,No,2,No,No,No,No,2020_Jul_06_1208,nibs_stage_1,3.2.3,60.05469535261321,
2,0,2,0,,,,,0,0,0,0,14,0,14,0,,,,,,,,,,,,,,,,,,,,,,,,,,,,,,,,,,,,,,,,,,,,,,,,,Listen to the question and speak out your answer!,1237.5237219333649,None,1237.5079039812088,1239.5567729473114,"Ich wusste nicht, ob ich lachen oder weinen sollte.",lachen,1238.906774497032,1241.8569040298462,1242.2402555704116,None,1254.1075534582137,None,1255.5242960453033,None,./data/Subject_05/Session_00/Exp_data/2020_Jul_06_1208/rec_QA_run_02_block_000_trial_014.wav,,,,05,00,English,B1,True,False,True,False,False,True,True,True,True,True,True,True,No,2,No,No,No,No,2020_Jul_06_1208,nibs_stage_1,3.2.3,60.05469535261321,
2,0,2,0,,,,,0,0,0,0,15,0,15,0,,,,,,,,,,,,,,,,,,,,,,,,,,,,,,,,,,,,,,,,,,,,,,,,,Listen to the question and speak out your answer!,1258.5926258563995,None,1258.5756839990615,1260.6245510578156,Am Strand spielt ständig laute Musik.,spielt,1259.974535679817,1262.5579960346222,1262.9413516283034,1263.9580540657043,1275.1752996206283,None,1276.5920269489288,None,./data/Subject_05/Session_00/Exp_data/2020_Jul_06_1208/rec_QA_run_02_block_000_trial_015.wav,,,,05,00,English,B1,True,False,True,False,False,True,True,True,True,True,True,True,No,2,No,No,No,No,2020_Jul_06_1208,nibs_stage_1,3.2.3,60.05469535261321,
2,0,2,0,,,,,0,0,0,0,16,0,16,0,,,,,,,,,,,,,,,,,,,,,,,,,,,,,,,,,,,,,,,,,,,,,,,,,Listen to the question and speak out your answer!,1279.5928399562836,None,1279.5767588376998,1281.625659942627,"Die Suppe wird nicht so heiß gegessen, wie sie gekocht wird.",gegessen,1280.9757926225661,None,1284.7091755628585,1285.7258808612823,1296.176448559761,None,1297.5931930541992,None,./data/Subject_05/Session_00/Exp_data/2020_Jul_06_1208/rec_QA_run_02_block_000_trial_016.wav,,,,05,00,English,B1,True,False,True,False,False,True,True,True,True,True,True,True,No,2,No,No,No,No,2020_Jul_06_1208,nibs_stage_1,3.2.3,60.05469535261321,
2,0,2,0,,,,,0,0,0,0,17,0,17,0,,,,,,,,,,,,,,,,,,,,,,,,,,,,,,,,,,,,,,,,,,,,,,,,,Listen to the question and speak out your answer!,1300.6606540679932,None,1300.6279084205626,1302.6602189540863,Biologie gehört zu den Natur-Wissenschaften.,gehört,1302.0436086416244,1304.9935479164124,1305.376931643486,None,1317.2441305875777,None,1318.6609370708466,None,./data/Subject_05/Session_00/Exp_data/2020_Jul_06_1208/rec_QA_run_02_block_000_trial_017.wav,,,,05,00,English,B1,True,False,True,False,False,True,True,True,True,True,True,True,No,2,No,No,No,No,2020_Jul_06_1208,nibs_stage_1,3.2.3,60.05469535261321,
2,0,2,0,,,,,0,0,0,0,18,0,18,0,,,,,,,,,,,,,,,,,,,,,,,,,,,,,,,,,,,,,,,,,,,,,,,,,Listen to the question and speak out your answer!,1321.6950809955597,None,1321.66236038208,1323.6944499015808,In der Morgen wasche ich mein Gesicht.,wasche,1323.0778486490249,None,1325.7446596384048,1326.7613759040833,1338.278594470024,None,1339.695417881012,None,./data/Subject_05/Session_00/Exp_data/2020_Jul_06_1208/rec_QA_run_02_block_000_trial_018.wav,,,,05,00,English,B1,True,False,True,False,False,True,True,True,True,True,True,True,No,2,No,No,No,No,2020_Jul_06_1208,nibs_stage_1,3.2.3,60.05469535261321,
2,0,2,0,,,,,0,0,0,0,19,0,19,0,,,,,,,,,,,,,,,,,,,,,,,,,,,,,,,,,,,,,,,,,,,,,,,,,Listen to the question and speak out your answer!,1342.7301399707794,None,1342.7134420156478,1344.7623958587646,"Es gibt viele Vorteile, wenn man die öffentlichen Verkehrsmittel benutzt.",benutzt,1344.1125855207442,1348.362725019455,1348.745968556404,None,1359.3131925821303,None,1360.729887008667,None,./data/Subject_05/Session_00/Exp_data/2020_Jul_06_1208/rec_QA_run_02_block_000_trial_019.wav,,,,05,00,English,B1,True,False,True,False,False,True,True,True,True,True,True,True,No,2,No,No,No,No,2020_Jul_06_1208,nibs_stage_1,3.2.3,60.05469535261321,
2,0,2,0,,,,,0,0,0,0,20,0,20,0,,,,,,,,,,,,,,,,,,,,,,,,,,,,,,,,,,,,,,,,,,,,,,,,,Listen to the question and speak out your answer!,1363.7969579696655,None,1363.781279015541,1365.8300938606262,Simon hat riesige Bilder gemalt.,gemalt,1365.1801755189895,None,1367.746871447563,1368.7635929584503,1380.380878663063,None,1381.7976109981537,None,./data/Subject_05/Session_00/Exp_data/2020_Jul_06_1208/rec_QA_run_02_block_000_trial_020.wav,,,,05,00,English,B1,True,False,True,False,False,True,True,True,True,True,True,True,No,2,No,No,No,No,2020_Jul_06_1208,nibs_stage_1,3.2.3,60.05469535261321,
2,0,2,0,,,,,0,0,0,0,21,0,21,0,,,,,,,,,,,,,,,,,,,,,,,,,,,,,,,,,,,,,,,,,,,,,,,,,Listen to the question and speak out your answer!,1384.8648369312286,None,1384.8323363780974,1386.8645269870758,"Um mein Auto zu kaufen, die Bank hat mir das Geld geliehen.",geliehen,1386.2481515169143,1389.7315039634705,1390.1147026777267,1391.131430864334,1401.4488305807113,1402.4653780460358,1402.8653950691223,None,./data/Subject_05/Session_00/Exp_data/2020_Jul_06_1208/rec_QA_run_02_block_000_trial_021.wav,,,,05,00,English,B1,True,False,True,False,False,True,True,True,True,True,True,True,No,2,No,No,No,No,2020_Jul_06_1208,nibs_stage_1,3.2.3,60.05469535261321,
2,0,2,0,,,,,0,0,0,0,22,0,22,0,,,,,,,,,,,,,,,,,,,,,,,,,,,,,,,,,,,,,,,,,,,,,,,,,Listen to the question and speak out your answer!,1405.8828918933868,None,1405.8500759363174,1407.8823289871216,Ein König wohnt in einem Schloss.,wohnt,1407.2322845220565,None,1409.5990845918654,None,1422.4331104516982,1423.4498360157013,1423.8498549461365,None,./data/Subject_05/Session_00/Exp_data/2020_Jul_06_1208/rec_QA_run_02_block_000_trial_022.wav,,,,05,00,English,B1,True,False,True,False,False,True,True,True,True,True,True,True,No,2,No,No,No,No,2020_Jul_06_1208,nibs_stage_1,3.2.3,60.05469535261321,
2,0,2,0,,,,,0,0,0,0,23,0,23,0,,,,,,,,,,,,,,,,,,,,,,,,,,,,,,,,,,,,,,,,,,,,,,,,,Listen to the question and speak out your answer!,1426.917291879654,None,1426.8845834255217,1428.916755914688,Die Wissenschaftler aus der Physik heißen Physiker.,heißen,1428.3000576257705,None,1431.9002616167068,1432.9169480800629,1443.5008444547652,1444.5175869464874,1444.9177129268646,None,./data/Subject_05/Session_00/Exp_data/2020_Jul_06_1208/rec_QA_run_02_block_000_trial_023.wav,,,,05,00,English,B1,True,False,True,False,False,True,True,True,True,True,True,True,No,2,No,No,No,No,2020_Jul_06_1208,nibs_stage_1,3.2.3,60.05469535261321,
2,0,2,0,,,,,0,0,0,0,24,0,24,0,,,,,,,,,,,,,,,,,,,,,,,,,,,,,,,,,,,,,,,,,,,,,,,,,Listen to the question and speak out your answer!,1447.952558040619,None,1447.9356900930404,1449.9512810707092,Im botanischen Garten kann mann wir exotische Pflanzen sehen.,sehen,1449.3344795465468,None,1453.4680676221847,None,1464.5353874921798,None,1465.952022075653,None,./data/Subject_05/Session_00/Exp_data/2020_Jul_06_1208/rec_QA_run_02_block_000_trial_024.wav,,,,05,00,English,B1,True,False,True,False,False,True,True,True,True,True,True,True,No,2,No,No,No,No,2020_Jul_06_1208,nibs_stage_1,3.2.3,60.05469535261321,
2,0,2,0,,,,,0,0,0,0,,,,,,,,,,,,,,,,,,,,,,,,,,,,,,,,,,,,,,,,,,1469.9689359664917,None,,,,,,,,,,,,,,,,,,,,,,,,,,,,,05,00,English,B1,True,False,True,False,False,True,True,True,True,True,True,True,No,2,No,No,No,No,2020_Jul_06_1208,nibs_stage_1,3.2.3,60.05469535261321,
2,0,2,0,,,,,1,0,1,0,0,0,0,0,,,,,,,,,,,,,,,,,,,,,,,,,,,,,,,,,,,,,,,,,,,,,,,,,Listen to the question and speak out your answer!,1484.086972951889,None,1484.0549913883208,1486.086436033249,"Kollegen versammelt sich zusammen, um ein neues Projekt zu planen.",planen,1485.436413502693,1489.4866189956665,1489.9033155202865,None,1500.63780066967,None,1502.0539569854736,None,./data/Subject_05/Session_00/Exp_data/2020_Jul_06_1208/rec_QA_run_02_block_001_trial_000.wav,,,,05,00,English,B1,True,False,True,False,False,True,True,True,True,True,True,True,No,2,No,No,No,No,2020_Jul_06_1208,nibs_stage_1,3.2.3,60.05469535261321,
2,0,2,0,,,,,1,0,1,0,1,0,1,0,,,,,,,,,,,,,,,,,,,,,,,,,,,,,,,,,,,,,,,,,,,,,,,,,Listen to the question and speak out your answer!,1505.1223859786987,None,1505.1053239583969,1507.1542139053345,Das Unternehmen wird nächste Woche die Jahresprämie bezahlen.,bezahlen,1506.504198527336,1510.1887719631195,1510.571050620079,1511.587769985199,1521.7049975156783,None,1523.1217410564423,None,./data/Subject_05/Session_00/Exp_data/2020_Jul_06_1208/rec_QA_run_02_block_001_trial_001.wav,,,,05,00,English,B1,True,False,True,False,False,True,True,True,True,True,True,True,No,2,No,No,No,No,2020_Jul_06_1208,nibs_stage_1,3.2.3,60.05469535261321,
2,0,2,0,,,,,1,0,1,0,2,0,2,0,,,,,,,,,,,,,,,,,,,,,,,,,,,,,,,,,,,,,,,,,,,,,,,,,Listen to the question and speak out your answer!,1526.1885149478912,None,1526.1564485549925,1528.1886539459229,Durch die Klimaveränderung steigen die Temperaturen auf der Erde.,steigen,1527.571983551979,1531.722198009491,1532.0721955060958,None,1542.772768473625,None,1544.189570903778,None,./data/Subject_05/Session_00/Exp_data/2020_Jul_06_1208/rec_QA_run_02_block_001_trial_002.wav,,,,05,00,English,B1,True,False,True,False,False,True,True,True,True,True,True,True,No,2,No,No,No,No,2020_Jul_06_1208,nibs_stage_1,3.2.3,60.05469535261321,
2,0,2,0,,,,,1,0,1,0,3,0,3,0,,,,,,,,,,,,,,,,,,,,,,,,,,,,,,,,,,,,,,,,,,,,,,,,,Listen to the question and speak out your answer!,1547.2246930599213,None,1547.2075659513473,1549.2564990520477,"Siehst du! Ich habe dir gesagt, dass es regnen würde.",gesagt,1548.6064984560012,1552.0232598781586,1552.4065925836562,1553.4234039783478,1563.8072285413741,None,1565.2239530086517,None,./data/Subject_05/Session_00/Exp_data/2020_Jul_06_1208/rec_QA_run_02_block_001_trial_003.wav,,,,05,00,English,B1,True,False,True,False,False,True,True,True,True,True,True,True,No,2,No,No,No,No,2020_Jul_06_1208,nibs_stage_1,3.2.3,60.05469535261321,
2,0,2,0,,,,,1,0,1,0,4,0,4,0,,,,,,,,,,,,,,,,,,,,,,,,,,,,,,,,,,,,,,,,,,,,,,,,,Listen to the question and speak out your answer!,1568.3081638813019,None,1568.2753819704055,1570.3075380325317,Es besteht eine starke Verbindung zwischen Musik und Kunst.,besteht,1569.6575164556502,None,1573.6577105283736,None,1584.858318543434,None,1586.2750499248505,None,./data/Subject_05/Session_00/Exp_data/2020_Jul_06_1208/rec_QA_run_02_block_001_trial_004.wav,,,,05,00,English,B1,True,False,True,False,False,True,True,True,True,True,True,True,No,2,No,No,No,No,2020_Jul_06_1208,nibs_stage_1,3.2.3,60.05469535261321,
2,0,2,0,,,,,1,0,1,0,5,0,5,0,,,,,,,,,,,,,,,,,,,,,,,,,,,,,,,,,,,,,,,,,,,,,,,,,Listen to the question and speak out your answer!,1589.34250998497,None,1589.309805345535,1591.3420779705048,Ich habe seine Telefonnummer auf einem Zettel notiert.,notiert,1590.7253045797347,1593.9423520565033,1594.3254766225814,None,1605.9260806798934,None,1607.3428270816803,None,./data/Subject_05/Session_00/Exp_data/2020_Jul_06_1208/rec_QA_run_02_block_001_trial_005.wav,,,,05,00,English,B1,True,False,True,False,False,True,True,True,True,True,True,True,No,2,No,No,No,No,2020_Jul_06_1208,nibs_stage_1,3.2.3,60.05469535261321,
2,0,2,0,,,,,1,0,1,0,6,0,6,0,,,,,,,,,,,,,,,,,,,,,,,,,,,,,,,,,,,,,,,,,,,,,,,,,Listen to the question and speak out your answer!,1610.3766300678253,None,1610.3608710050582,1612.4099378585815,Sie schulden mir noch Geld von gestern.,schulden,1611.7264015436172,1614.0431990623474,1614.459876513481,None,1626.9272265195846,None,1628.343913078308,None,./data/Subject_05/Session_00/Exp_data/2020_Jul_06_1208/rec_QA_run_02_block_001_trial_006.wav,,,,05,00,English,B1,True,False,True,False,False,True,True,True,True,True,True,True,No,2,No,No,No,No,2020_Jul_06_1208,nibs_stage_1,3.2.3,60.05469535261321,
2,0,2,0,,,,,1,0,1,0,7,0,7,0,,,,,,,,,,,,,,,,,,,,,,,,,,,,,,,,,,,,,,,,,,,,,,,,,Listen to the question and speak out your answer!,1631.4111728668213,None,1631.3788475513456,1633.4108619689941,Morgen ändert sich das Wetter ganz bestimmt.,bestimmt,1632.7941646337508,None,1635.6276664495467,None,1647.9949786424636,None,1649.4117250442505,None,./data/Subject_05/Session_00/Exp_data/2020_Jul_06_1208/rec_QA_run_02_block_001_trial_007.wav,,,,05,00,English,B1,True,False,True,False,False,True,True,True,True,True,True,True,No,2,No,No,No,No,2020_Jul_06_1208,nibs_stage_1,3.2.3,60.05469535261321,
2,0,2,0,,,,,1,0,1,0,8,0,8,0,,,,,,,,,,,,,,,,,,,,,,,,,,,,,,,,,,,,,,,,,,,,,,,,,Listen to the question and speak out your answer!,1652.4619889259338,None,1652.4297031641006,1654.4619779586792,"Mein Ziel ist, in der Prüfung gute Ergebnisse zu bekommen.",bekommen,1653.8453006505965,1657.4621410369873,1657.8455095052718,1658.8622069358826,1669.0461175203322,None,1670.462821006775,None,./data/Subject_05/Session_00/Exp_data/2020_Jul_06_1208/rec_QA_run_02_block_001_trial_008.wav,,,,05,00,English,B1,True,False,True,False,False,True,True,True,True,True,True,True,No,2,No,No,No,No,2020_Jul_06_1208,nibs_stage_1,3.2.3,60.05469535261321,
2,0,2,0,,,,,1,0,1,0,9,0,9,0,,,,,,,,,,,,,,,,,,,,,,,,,,,,,,,,,,,,,,,,,,,,,,,,,Listen to the question and speak out your answer!,1673.4980940818787,None,1673.4808840036392,1675.529746055603,"Wir müssen genau planen, was wir tun wollen.",planen,1674.8797344923018,1677.563236951828,1677.946552491188,None,1690.0805744886397,None,1691.497449874878,None,./data/Subject_05/Session_00/Exp_data/2020_Jul_06_1208/rec_QA_run_02_block_001_trial_009.wav,,,,05,00,English,B1,True,False,True,False,False,True,True,True,True,True,True,True,No,2,No,No,No,No,2020_Jul_06_1208,nibs_stage_1,3.2.3,60.05469535261321,
2,0,2,0,,,,,1,0,1,0,10,0,10,0,,,,,,,,,,,,,,,,,,,,,,,,,,,,,,,,,,,,,,,,,,,,,,,,,Listen to the question and speak out your answer!,1694.547611951828,None,1694.515327143669,1696.547534942627,Mit dem neuen System können wir Dokumente effizienter organisieren.,organisieren,1695.8975004911422,None,1700.4644055128097,None,1711.0983075857162,None,1712.5150198936462,None,./data/Subject_05/Session_00/Exp_data/2020_Jul_06_1208/rec_QA_run_02_block_001_trial_010.wav,,,,05,00,English,B1,True,False,True,False,False,True,True,True,True,True,True,True,No,2,No,No,No,No,2020_Jul_06_1208,nibs_stage_1,3.2.3,60.05469535261321,
2,0,2,0,,,,,1,0,1,0,11,0,11,0,,,,,,,,,,,,,,,,,,,,,,,,,,,,,,,,,,,,,,,,,,,,,,,,,Listen to the question and speak out your answer!,1715.5991868972778,None,1715.5664140462875,1717.598620891571,"Befristete Verträge enden automatisch, wenn sie nicht erneuert werden.",enden,1716.9819676637649,1721.2654988765717,1721.6490194559096,None,1732.1827485322951,1733.1994349956512,1733.5995209217072,None,./data/Subject_05/Session_00/Exp_data/2020_Jul_06_1208/rec_QA_run_02_block_001_trial_011.wav,,,,05,00,English,B1,True,False,True,False,False,True,True,True,True,True,True,True,No,2,No,No,No,No,2020_Jul_06_1208,nibs_stage_1,3.2.3,60.05469535261321,
2,0,2,0,,,,,1,0,1,0,12,0,12,0,,,,,,,,,,,,,,,,,,,,,,,,,,,,,,,,,,,,,,,,,,,,,,,,,Listen to the question and speak out your answer!,1736.6336739063263,None,1736.617498087883,1738.6663980484009,Leo ist schon zur Arbeit gegangen.,gegangen,1738.0163764715194,None,1740.5168356657027,None,1753.2171866655349,None,1754.6339988708496,None,./data/Subject_05/Session_00/Exp_data/2020_Jul_06_1208/rec_QA_run_02_block_001_trial_012.wav,,,,05,00,English,B1,True,False,True,False,False,True,True,True,True,True,True,True,No,2,No,No,No,No,2020_Jul_06_1208,nibs_stage_1,3.2.3,60.05469535261321,
2,0,2,0,,,,,1,0,1,0,13,0,13,0,,,,,,,,,,,,,,,,,,,,,,,,,,,,,,,,,,,,,,,,,,,,,,,,,Listen to the question and speak out your answer!,1757.7180829048157,None,1757.6853150606155,1759.7175948619843,Dank genügend Sonnenschein und Wasser können im Amazonaswald riesige Bäume wachsen.,wachsen,1759.067605471611,1764.1846709251404,1764.5677876234054,None,1774.2683756113051,1775.2850000858307,1775.6850249767303,None,./data/Subject_05/Session_00/Exp_data/2020_Jul_06_1208/rec_QA_run_02_block_001_trial_013.wav,,,,05,00,English,B1,True,False,True,False,False,True,True,True,True,True,True,True,No,2,No,No,No,No,2020_Jul_06_1208,nibs_stage_1,3.2.3,60.05469535261321,
2,0,2,0,,,,,1,0,1,0,14,0,14,0,,,,,,,,,,,,,,,,,,,,,,,,,,,,,,,,,,,,,,,,,,,,,,,,,Listen to the question and speak out your answer!,1778.7691009044647,None,1778.7364589452743,1780.768632888794,"Ich muss meinen Nachnamen oft langsam buchstabieren, weil er zu selten ist.",buchstabieren,1780.1519386529922,1784.6355080604553,1784.9855346441268,None,1795.3527745962142,None,1796.7694928646088,None,./data/Subject_05/Session_00/Exp_data/2020_Jul_06_1208/rec_QA_run_02_block_001_trial_014.wav,,,,05,00,English,B1,True,False,True,False,False,True,True,True,True,True,True,True,No,2,No,No,No,No,2020_Jul_06_1208,nibs_stage_1,3.2.3,60.05469535261321,
2,0,2,0,,,,,1,0,1,0,15,0,15,0,,,,,,,,,,,,,,,,,,,,,,,,,,,,,,,,,,,,,,,,,,,,,,,,,Listen to the question and speak out your answer!,1799.8046569824219,None,1799.7876469373703,1801.836413860321,Am Geburtstag hat mein Vater mir einen Geschenk geschenkt.,geschenkt,1801.1863705873488,None,1804.8865794897079,1805.9032928943634,1816.3872015237807,None,1817.8039898872375,None,./data/Subject_05/Session_00/Exp_data/2020_Jul_06_1208/rec_QA_run_02_block_001_trial_015.wav,,,,05,00,English,B1,True,False,True,False,False,True,True,True,True,True,True,True,No,2,No,No,No,No,2020_Jul_06_1208,nibs_stage_1,3.2.3,60.05469535261321,
2,0,2,0,,,,,1,0,1,0,16,0,16,0,,,,,,,,,,,,,,,,,,,,,,,,,,,,,,,,,,,,,,,,,,,,,,,,,Listen to the question and speak out your answer!,1820.870775938034,None,1820.8386585235594,1822.8709330558777,"Im Kaffeehaus sitzen und Zeitung lesen, das gefällt den Österreichern.",gefällt,1822.2541024446487,None,1827.0210885763167,None,1837.454954600334,None,1838.8717288970947,None,./data/Subject_05/Session_00/Exp_data/2020_Jul_06_1208/rec_QA_run_02_block_001_trial_016.wav,,,,05,00,English,B1,True,False,True,False,False,True,True,True,True,True,True,True,No,2,No,No,No,No,2020_Jul_06_1208,nibs_stage_1,3.2.3,60.05469535261321,
2,0,2,0,,,,,1,0,1,0,17,0,17,0,,,,,,,,,,,,,,,,,,,,,,,,,,,,,,,,,,,,,,,,,,,,,,,,,Listen to the question and speak out your answer!,1841.9067029953003,None,1841.889768052101,1843.938621044159,Wir sollten das Menü auf ein grünes Blatt Papier drucken.,drucken,1843.2886094808578,1846.7054438591003,1847.0887994527816,None,1858.4894075155257,None,1859.9062390327454,None,./data/Subject_05/Session_00/Exp_data/2020_Jul_06_1208/rec_QA_run_02_block_001_trial_017.wav,,,,05,00,English,B1,True,False,True,False,False,True,True,True,True,True,True,True,No,2,No,No,No,No,2020_Jul_06_1208,nibs_stage_1,3.2.3,60.05469535261321,
2,0,2,0,,,,,1,0,1,0,18,0,18,0,,,,,,,,,,,,,,,,,,,,,,,,,,,,,,,,,,,,,,,,,,,,,,,,,Listen to the question and speak out your answer!,1862.9570338726044,None,1862.924200940132,1864.9564189910889,"Da ich gestern Abend übergewichtig war, werde ich morgen eine neue Diät beginnen.",beginnen,1864.3064176797866,None,1869.4400446176528,None,1879.5072564840316,None,1880.9239029884338,None,./data/Subject_05/Session_00/Exp_data/2020_Jul_06_1208/rec_QA_run_02_block_001_trial_018.wav,,,,05,00,English,B1,True,False,True,False,False,True,True,True,True,True,True,True,No,2,No,No,No,No,2020_Jul_06_1208,nibs_stage_1,3.2.3,60.05469535261321,
2,0,2,0,,,,,1,0,1,0,19,0,19,0,,,,,,,,,,,,,,,,,,,,,,,,,,,,,,,,,,,,,,,,,,,,,,,,,Listen to the question and speak out your answer!,1883.9914660453796,None,1883.9586464881895,1885.9908640384674,Er hat seine Katze oft mit Fisch gefüttert.,gefüttert,1885.3741564512252,1887.8576109409332,1888.2411634683608,1889.2579970359802,1900.5749516248702,None,1901.9917268753052,None,./data/Subject_05/Session_00/Exp_data/2020_Jul_06_1208/rec_QA_run_02_block_001_trial_019.wav,,,,05,00,English,B1,True,False,True,False,False,True,True,True,True,True,True,True,No,2,No,No,No,No,2020_Jul_06_1208,nibs_stage_1,3.2.3,60.05469535261321,
2,0,2,0,,,,,1,0,1,0,20,0,20,0,,,,,,,,,,,,,,,,,,,,,,,,,,,,,,,,,,,,,,,,,,,,,,,,,Listen to the question and speak out your answer!,1905.0265519618988,None,1905.0096730470657,1907.0586199760437,"Wie lange benötigt die Erde, um die Sonne zu umrunden?",benötigt,1906.40870449543,1909.9587540626526,1910.342058634758,None,1921.6093525648116,None,1923.026123046875,None,./data/Subject_05/Session_00/Exp_data/2020_Jul_06_1208/rec_QA_run_02_block_001_trial_020.wav,,,,05,00,English,B1,True,False,True,False,False,True,True,True,True,True,True,True,No,2,No,No,No,No,2020_Jul_06_1208,nibs_stage_1,3.2.3,60.05469535261321,
2,0,2,0,,,,,1,0,1,0,21,0,21,0,,,,,,,,,,,,,,,,,,,,,,,,,,,,,,,,,,,,,,,,,,,,,,,,,Listen to the question and speak out your answer!,1926.093589067459,None,1926.0609633445738,1928.0930490493774,Ich nehme nicht gerne Zucker zum Tee.,nehme,1927.4763705492019,None,1930.1098506212234,None,1942.677096581459,None,1944.09392786026,None,./data/Subject_05/Session_00/Exp_data/2020_Jul_06_1208/rec_QA_run_02_block_001_trial_021.wav,,,,05,00,English,B1,True,False,True,False,False,True,True,True,True,True,True,True,No,2,No,No,No,No,2020_Jul_06_1208,nibs_stage_1,3.2.3,60.05469535261321,
2,0,2,0,,,,,1,0,1,0,22,0,22,0,,,,,,,,,,,,,,,,,,,,,,,,,,,,,,,,,,,,,,,,,,,,,,,,,Listen to the question and speak out your answer!,1947.1441400051117,None,1947.1119741678237,1949.1441640853882,Viele Tiere leben in Afrika.,leben,1948.4941646814345,1950.8775870800018,1951.2611496210097,None,1963.6949546098708,None,1965.1116859912872,None,./data/Subject_05/Session_00/Exp_data/2020_Jul_06_1208/rec_QA_run_02_block_001_trial_022.wav,,,,05,00,English,B1,True,False,True,False,False,True,True,True,True,True,True,True,No,2,No,No,No,No,2020_Jul_06_1208,nibs_stage_1,3.2.3,60.05469535261321,
2,0,2,0,,,,,1,0,1,0,23,0,23,0,,,,,,,,,,,,,,,,,,,,,,,,,,,,,,,,,,,,,,,,,,,,,,,,,Listen to the question and speak out your answer!,1968.1808149814606,None,1968.1464013576506,1970.178601026535,"Tut mir leid, darf ich fragen warum?",fragen,1969.562047457695,1972.0786838531494,1972.4621164560317,None,1984.746054625511,1985.7628810405731,1986.162710905075,None,./data/Subject_05/Session_00/Exp_data/2020_Jul_06_1208/rec_QA_run_02_block_001_trial_023.wav,,,,05,00,English,B1,True,False,True,False,False,True,True,True,True,True,True,True,No,2,No,No,No,No,2020_Jul_06_1208,nibs_stage_1,3.2.3,60.05469535261321,
2,0,2,0,,,,,1,0,1,0,24,0,24,0,,,,,,,,,,,,,,,,,,,,,,,,,,,,,,,,,,,,,,,,,,,,,,,,,Listen to the question and speak out your answer!,1989.2463870048523,None,1989.2141880273819,1991.2463929653168,Der Mond scheint hell.,scheint,1990.5963175058364,1991.9797539710999,1992.3964595556258,None,2005.7971675157546,None,2007.213940858841,None,./data/Subject_05/Session_00/Exp_data/2020_Jul_06_1208/rec_QA_run_02_block_001_trial_024.wav,,,,05,00,English,B1,True,False,True,False,False,True,True,True,True,True,True,True,No,2,No,No,No,No,2020_Jul_06_1208,nibs_stage_1,3.2.3,60.05469535261321,
2,0,2,0,,,,,1,0,1,0,,,,,,,,,,,,,,,,,,,,,,,,,,,,,,,,,,,,,,,,,,2011.2641260623932,None,,,,,,,,,,,,,,,,,,,,,,,,,,,,,05,00,English,B1,True,False,True,False,False,True,True,True,True,True,True,True,No,2,No,No,No,No,2020_Jul_06_1208,nibs_stage_1,3.2.3,60.05469535261321,
2,0,2,0,,,,,,,,,,,,,,,,,,,,,,,,,,,,,,,,,,,,,,,,,,,,,,,,,,,,,,,,,,,,,,,,,,,,,,,,,,,,,Please remain seated until further instruction via the earphone.,110.2808210849762,None,05,00,English,B1,True,False,True,False,False,True,True,True,True,True,True,True,No,2,No,No,No,No,2020_Jul_06_1208,nibs_stage_1,3.2.3,60.05469535261321,
