run.thisRepN,run.thisTrialN,run.thisN,run.thisIndex,artifact_trial.thisRepN,artifact_trial.thisTrialN,artifact_trial.thisN,artifact_trial.thisIndex,QA_block.thisRepN,QA_block.thisTrialN,QA_block.thisN,QA_block.thisIndex,QA_trial.thisRepN,QA_trial.thisTrialN,QA_trial.thisN,QA_trial.thisIndex,fade_in_text.text,fade_in_text.started,fade_in_text.stopped,Artifact_intro_title.started,Artifact_intro_title.stopped,Artifact_intro_text.text,Artifact_intro_text.started,Artifact_intro_text.stopped,Artifact_intro_audio.started,Artifact_intro_audio.stopped,Artifact_intro_cont.started,Artifact_intro_cont.stopped,Artifact_rec_text.text,Artifact_rec_text.started,Artifact_rec_text.stopped,Artifact_rec_beep_hint.started,Artifact_rec_beep_hint.stopped,Artifact_rec_action.started,Artifact_rec_action.stopped,Artifact_rec_beep_start.started,Artifact_rec_beep_start.stopped,Artifact_rec_recording.started,Artifact_rec_recording.stopped,Artifact_rec_beep_end.started,Artifact_rec_beep_end.stopped,Artifact_rec_break.started,Artifact_rec_break.stopped,RS_intro_title.started,RS_intro_title.stopped,RS_intro_text.text,RS_intro_text.started,RS_intro_text.stopped,RS_intro_audio.started,RS_intro_audio.stopped,RS_rec_text.text,RS_rec_text.started,RS_rec_text.stopped,Pause_cont.started,Pause_cont.stopped,QA_intro_title.started,QA_intro_title.stopped,QA_intro_text.text,QA_intro_text.started,QA_intro_text.stopped,QA_intro_audio.started,QA_intro_audio.stopped,QA_intro_cont.started,QA_intro_cont.stopped,QA_rec_text.text,QA_rec_text.started,QA_rec_text.stopped,QA_rec_beep_hint.started,QA_rec_beep_hint.stopped,QA_rec_question.sen_text,QA_rec_question.cen_text,QA_rec_question.started,QA_rec_question.stopped,QA_rec_beep_start.started,QA_rec_beep_start.stopped,QA_rec_beep_end.started,QA_rec_beep_end.stopped,QA_rec_break.started,QA_rec_break.stopped,filename,participant,session,First language,German level,Full_screen,Instruction,Intro,Artifact,Cali_pre,Fade_in_out,Artifact_within,Resting_State,QA,Pause,Cali_post,End,Breakpoint_Cali_pre_trial,Breakpoint_Run,Breakpoint_RS_block,Breakpoint_QA_block,Breakpoint_QA_trial,Breakpoint_Cali_post_trial,date,expName,psychopyVersion,frameRate,
2,0,2,0,0,0,0,0,,,,,,,,,Please remain seated until further instruction via the earphone.,55.34512400627136,None,57.37871217727661,None,"  - Task: Artifacts collection   
  - Please follow audio instruction              
",57.37871217727661,None,57.36199934482575,None,83.74689817428589,None,,85.8802580833435,None,85.86354334354401,87.86377000808716,87.24713046550751,None,90.64744861125946,91.64733815193176,92.04734952449799,102.04787302017212,102.44787247180939,103.44793605804443,103.84794521331787,104.84790420532227,,,,,,,,,,,,,,,,,,,,,,,,,,,,,,,,,,,,,,07,01,English,B1,True,False,True,False,False,True,True,True,True,True,True,True,No,2,No,No,No,No,2020_Jul_19_1735,nibs_stage_1,3.2.3,59.99301991612457,
2,0,2,0,1,0,1,0,,,,,,,,,,,,,,,,,,,,,,107.88185620307922,None,107.88158042430878,109.88161516189575,109.26489050388336,None,112.66509349346161,113.66509914398193,114.0652595281601,124.06565022468567,124.46566350460053,125.46576309204102,125.86582207679749,126.86572217941284,,,,,,,,,,,,,,,,,,,,,,,,,,,,,,,,,,,,,,07,01,English,B1,True,False,True,False,False,True,True,True,True,True,True,True,No,2,No,No,No,No,2020_Jul_19_1735,nibs_stage_1,3.2.3,59.99301991612457,
2,0,2,0,2,0,2,0,,,,,,,,,,,,,,,,,,,,,,129.89946913719177,129.89946913719177,129.88273246288298,131.88270020484924,131.28289659023284,None,134.68288547992705,None,136.0830724954605,146.08347010612488,146.48348553180693,None,147.8835551738739,148.88362503051758,,,,,,,,,,,,,,,,,,,,,,,,,,,,,,,,,,,,,,07,01,English,B1,True,False,True,False,False,True,True,True,True,True,True,True,No,2,No,No,No,No,2020_Jul_19_1735,nibs_stage_1,3.2.3,59.99301991612457,
2,0,2,0,3,0,3,0,,,,,,,,,,,,,,,,,,,,,,151.90083122253418,None,151.90051634311675,153.90052199363708,153.28408057689666,None,156.68400461673735,None,158.08407957553862,168.08458709716797,168.48454840183257,None,169.88468217849731,170.8848659992218,,,,,,,,,,,,,,,,,,,,,,,,,,,,,,,,,,,,,,07,01,English,B1,True,False,True,False,False,True,True,True,True,True,True,True,No,2,No,No,No,No,2020_Jul_19_1735,nibs_stage_1,3.2.3,59.99301991612457,
2,0,2,0,4,0,4,0,,,,,,,,,,,,,,,,,,,,,,173.9183030128479,173.9183030128479,173.90157945156096,175.90158200263977,175.30166251659392,None,178.70180661678313,None,180.10189945697783,190.10250806808472,190.50246746540068,191.5025269985199,191.90252208709717,192.902606010437,,,,,,,,,,,,,,,,,,,,,,,,,,,,,,,,,,,,,,07,01,English,B1,True,False,True,False,False,True,True,True,True,True,True,True,No,2,No,No,No,No,2020_Jul_19_1735,nibs_stage_1,3.2.3,59.99301991612457,
2,0,2,0,5,0,5,0,,,,,,,,,,,,,,,,,,,,,,195.93606519699097,None,195.91949851512908,197.91946721076965,197.30278451442717,None,200.70293958187102,None,202.10303361415862,212.10353708267212,212.503586602211,213.50375604629517,213.90366005897522,214.90361309051514,,,,,,,,,,,,,,,,,,,,,,,,,,,,,,,,,,,,,,07,01,English,B1,True,False,True,False,False,True,True,True,True,True,True,True,No,2,No,No,No,No,2020_Jul_19_1735,nibs_stage_1,3.2.3,59.99301991612457,
2,0,2,0,6,0,6,0,,,,,,,,,,,,,,,,,,,,,,217.93756914138794,None,217.93728454113005,219.93732118606567,219.320574593544,None,222.72074658870696,None,224.12097747325896,234.12149000167847,234.5217076063156,235.52144408226013,235.92142605781555,236.92151522636414,,,,,,,,,,,,,,,,,,,,,,,,,,,,,,,,,,,,,,07,01,English,B1,True,False,True,False,False,True,True,True,True,True,True,True,No,2,No,No,No,No,2020_Jul_19_1735,nibs_stage_1,3.2.3,59.99301991612457,
2,0,2,0,7,0,7,0,,,,,,,,,,,,,,,,,,,,,,239.95484805107117,239.95484805107117,239.93865139484404,241.9382882118225,241.3382554769516,244.33838415145874,244.7383754968643,None,246.1384695291519,256.1391830444336,256.5391155004501,257.5392060279846,257.9392960071564,258.93931221961975,,,,,,,,,,,,,,,,,,,,,,,,,,,,,,,,,,,,,,07,01,English,B1,True,False,True,False,False,True,True,True,True,True,True,True,No,2,No,No,No,No,2020_Jul_19_1735,nibs_stage_1,3.2.3,59.99301991612457,
2,0,2,0,8,0,8,0,,,,,,,,,,,,,,,,,,,,,,261.95649003982544,None,261.9561684846878,263.9563410282135,263.3395145654678,266.3396830558777,266.73969156742095,None,268.1397624731064,278.1402151584625,278.54019553661345,279.5401360988617,279.94015312194824,280.94021105766296,,,,,,,,,,,,,,,,,,,,,,,,,,,,,,,,,,,,,,07,01,English,B1,True,False,True,False,False,True,True,True,True,True,True,True,No,2,No,No,No,No,2020_Jul_19_1735,nibs_stage_1,3.2.3,59.99301991612457,
2,0,2,0,9,0,9,0,,,,,,,,,,,,,,,,,,,,,,283.97378420829773,283.97378420829773,283.95707733631133,285.95724511146545,285.3571046113968,288.3572680950165,288.7572975873947,None,290.15734560489653,300.1578860282898,300.55789453983306,None,301.95797514915466,302.95802211761475,,,,,,,,,,,,,,,,,,,,,,,,,,,,,,,,,,,,,,07,01,English,B1,True,False,True,False,False,True,True,True,True,True,True,True,No,2,No,No,No,No,2020_Jul_19_1735,nibs_stage_1,3.2.3,59.99301991612457,
2,0,2,0,10,0,10,0,,,,,,,,,,,,,,,,,,,,,,305.97545099258423,None,305.97492344379424,307.97493505477905,307.3581355333328,None,310.75855858325957,None,312.1584935903549,322.15900802612305,322.5590315580368,None,323.9590220451355,324.9591472148895,,,,,,,,,,,,,,,,,,,,,,,,,,,,,,,,,,,,,,07,01,English,B1,True,False,True,False,False,True,True,True,True,True,True,True,No,2,No,No,No,No,2020_Jul_19_1735,nibs_stage_1,3.2.3,59.99301991612457,
2,0,2,0,11,0,11,0,,,,,,,,,,,,,,,,,,,,,,327.9928240776062,327.9928240776062,327.97608335018157,329.97606205940247,329.3760364770889,None,332.77614958286284,None,334.1768863916397,344.1769142150879,344.57683856487273,None,345.97691106796265,346.97695112228394,,,,,,,,,,,,,,,,,,,,,,,,,,,,,,,,,,,,,,07,01,English,B1,True,False,True,False,False,True,True,True,True,True,True,True,No,2,No,No,No,No,2020_Jul_19_1735,nibs_stage_1,3.2.3,59.99301991612457,
2,0,2,0,12,0,12,0,,,,,,,,,,,,,,,,,,,,,,350.0105621814728,None,349.99386937618254,351.9938781261444,351.3771866083145,354.37736916542053,354.77728350162505,None,356.17743451595305,366.178120136261,366.5781155347824,None,367.97839522361755,368.97826313972473,,,,,,,,,,,,,,,,,,,,,,,,,,,,,,,,,,,,,,07,01,English,B1,True,False,True,False,False,True,True,True,True,True,True,True,No,2,No,No,No,No,2020_Jul_19_1735,nibs_stage_1,3.2.3,59.99301991612457,
2,0,2,0,13,0,13,0,,,,,,,,,,,,,,,,,,,,,,372.028608083725,None,372.01190955638884,374.011931180954,373.395224404335,None,376.7953913927078,None,378.19539053440093,388.1960220336914,388.5960384130478,None,389.9961051940918,390.99614000320435,,,,,,,,,,,,,,,,,,,,,,,,,,,,,,,,,,,,,,07,01,English,B1,True,False,True,False,False,True,True,True,True,True,True,True,No,2,No,No,No,No,2020_Jul_19_1735,nibs_stage_1,3.2.3,59.99301991612457,
2,0,2,0,14,0,14,0,,,,,,,,,,,,,,,,,,,,,,394.04632902145386,None,394.0297435045242,396.0297441482544,395.41305549144744,None,398.81309444904326,None,400.21325452327727,410.2138011455536,410.6138184785843,None,412.0139081478119,413.0139410495758,,,,,,,,,,,,,,,,,,,,,,,,,,,,,,,,,,,,,,07,01,English,B1,True,False,True,False,False,True,True,True,True,True,True,True,No,2,No,No,No,No,2020_Jul_19_1735,nibs_stage_1,3.2.3,59.99301991612457,
2,0,2,0,,,,,0,0,0,0,0,0,0,0,,,,,,,,,,,,,,,,,,,,,,,,,,,,623.4914450645447,None," - Task: Keep seated and relaxed with either      
             opening or closing eyes                  
 - Beep sound with decreasing pitch: Block finish 
",623.4914450645447,None,623.4747108459474,None,"Please keep relaxed and open your eyes.
Note: Blinking is allowed.",646.5258581638336,826.5353300571442,829.9355561733246,None,845.8364350795746,None," - Task: Listen to the question& Speak out answer 
 - Melodious beep sound: Trial start              
 - Silent sound (blank): censored word            
 - Beep sound with increasing pitch: Rec. start   
 - Beep sound with decreasing pitch: Rec. finish  
",845.8364350795746,None,845.8196888685227,None,885.2215321063995,None,Listen to the question and speak out your answer!,888.288446187973,None,888.2718477010727,890.2719261646271,Ein Fußball Team besteht aus zehn Spielern und einem Tormann.,besteht,889.671752524376,893.5052251815796,893.9056795358658,None,904.8725643873215,905.872545003891,906.2726089954376,907.2726809978485,./data/Subject_07/Session_01/Exp_data/2020_Jul_19_1735/rec_QA_run_02_block_000_trial_000.wav,07,01,English,B1,True,False,True,False,False,True,True,True,True,True,True,True,No,2,No,No,No,No,2020_Jul_19_1735,nibs_stage_1,3.2.3,59.99301991612457,
2,0,2,0,,,,,0,0,0,0,1,0,1,0,,,,,,,,,,,,,,,,,,,,,,,,,,,,,,,,,,,,,,,,,,,,,,,,,Listen to the question and speak out your answer!,909.3396010398865,None,909.3228931188584,911.3229081630707,Eltern kümmern sich um ihre Kinder.,kümmern,910.7062795877457,None,913.3064225435257,None,925.9070463895798,None,927.3071382045746,928.3071160316467,./data/Subject_07/Session_01/Exp_data/2020_Jul_19_1735/rec_QA_run_02_block_000_trial_001.wav,07,01,English,B1,True,False,True,False,False,True,True,True,True,True,True,True,No,2,No,No,No,No,2020_Jul_19_1735,nibs_stage_1,3.2.3,59.99301991612457,
2,0,2,0,,,,,0,0,0,0,2,0,2,0,,,,,,,,,,,,,,,,,,,,,,,,,,,,,,,,,,,,,,,,,,,,,,,,,Listen to the question and speak out your answer!,930.3912000656128,None,930.3573369026185,932.3908832073212,Bei dem Gewitter letzte Woche hat der Blitz in ein Boot eingeschlagen.,eingeschlagen,931.7739794969559,935.5575280189514,935.9409595251084,936.9575901031494,946.958108496666,None,948.3747680187225,None,./data/Subject_07/Session_01/Exp_data/2020_Jul_19_1735/rec_QA_run_02_block_000_trial_002.wav,07,01,English,B1,True,False,True,False,False,True,True,True,True,True,True,True,No,2,No,No,No,No,2020_Jul_19_1735,nibs_stage_1,3.2.3,59.99301991612457,
2,0,2,0,,,,,0,0,0,0,3,0,3,0,,,,,,,,,,,,,,,,,,,,,,,,,,,,,,,,,,,,,,,,,,,,,,,,,Listen to the question and speak out your answer!,951.4417350292206,None,951.4084738731385,953.4417741298676,Mit dem Rezept kann man die Medizin in der Apotheke kaufen.,kaufen,952.8250845193863,956.4752790927887,956.8586374044419,None,968.0258975744248,969.042610168457,969.4426341056824,None,./data/Subject_07/Session_01/Exp_data/2020_Jul_19_1735/rec_QA_run_02_block_000_trial_003.wav,07,01,English,B1,True,False,True,False,False,True,True,True,True,True,True,True,No,2,No,No,No,No,2020_Jul_19_1735,nibs_stage_1,3.2.3,59.99301991612457,
2,0,2,0,,,,,0,0,0,0,4,0,4,0,,,,,,,,,,,,,,,,,,,,,,,,,,,,,,,,,,,,,,,,,,,,,,,,,Listen to the question and speak out your answer!,972.4928531646729,None,972.4595441579819,974.4928810596466,Zu Ostern gibt es für Kinder Ostereier und Süßigkeiten.,gibt,973.8761904954911,None,978.0097203969956,979.0264542102814,989.0769875764847,None,990.4937200546265,None,./data/Subject_07/Session_01/Exp_data/2020_Jul_19_1735/rec_QA_run_02_block_000_trial_004.wav,07,01,English,B1,True,False,True,False,False,True,True,True,True,True,True,True,No,2,No,No,No,No,2020_Jul_19_1735,nibs_stage_1,3.2.3,59.99301991612457,
2,0,2,0,,,,,0,0,0,0,5,0,5,0,,,,,,,,,,,,,,,,,,,,,,,,,,,,,,,,,,,,,,,,,,,,,,,,,Listen to the question and speak out your answer!,993.5273129940033,None,993.4939867496491,995.527321100235,Ich höre sie den Namen Sam rufen.,rufen,994.9106305360795,997.1943480968475,997.5440026044846,None,1010.1114254713059,1011.1282250881195,1011.5281181335449,None,./data/Subject_07/Session_01/Exp_data/2020_Jul_19_1735/rec_QA_run_02_block_000_trial_005.wav,07,01,English,B1,True,False,True,False,False,True,True,True,True,True,True,True,No,2,No,No,No,No,2020_Jul_19_1735,nibs_stage_1,3.2.3,59.99301991612457,
2,0,2,0,,,,,0,0,0,0,6,0,6,0,,,,,,,,,,,,,,,,,,,,,,,,,,,,,,,,,,,,,,,,,,,,,,,,,Listen to the question and speak out your answer!,1014.5631580352783,None,1014.5452341794968,1016.5617451667786,Ich habe meine Schuhe für die Hochzeit geputzt.,geputzt,1015.94504840374,None,1018.9452145814896,None,1031.1125086069108,None,1032.5292551517487,None,./data/Subject_07/Session_01/Exp_data/2020_Jul_19_1735/rec_QA_run_02_block_000_trial_006.wav,07,01,English,B1,True,False,True,False,False,True,True,True,True,True,True,True,No,2,No,No,No,No,2020_Jul_19_1735,nibs_stage_1,3.2.3,59.99301991612457,
2,0,2,0,,,,,0,0,0,0,7,0,7,0,,,,,,,,,,,,,,,,,,,,,,,,,,,,,,,,,,,,,,,,,,,,,,,,,Listen to the question and speak out your answer!,1035.598062992096,None,1035.5795483350755,1037.5961821079254,Ich habe mich dieses Semester für einen sehr einfachen Kurs angemeldet.,angemeldet,1036.979475569725,None,1041.4463935613633,None,1052.1802964925766,1053.1971130371094,1053.5969460010529,None,./data/Subject_07/Session_01/Exp_data/2020_Jul_19_1735/rec_QA_run_02_block_000_trial_007.wav,07,01,English,B1,True,False,True,False,False,True,True,True,True,True,True,True,No,2,No,No,No,No,2020_Jul_19_1735,nibs_stage_1,3.2.3,59.99301991612457,
2,0,2,0,,,,,0,0,0,0,8,0,8,0,,,,,,,,,,,,,,,,,,,,,,,,,,,,,,,,,,,,,,,,,,,,,,,,,Listen to the question and speak out your answer!,1056.680635213852,None,1056.6473521947862,1058.6806230545044,In der Parfümerie riecht es sehr stark nach verschiedenen Düften.,riecht,1058.0306974172593,None,1062.2308223962784,None,1073.231410574913,1074.248095035553,1074.6480951309204,None,./data/Subject_07/Session_01/Exp_data/2020_Jul_19_1735/rec_QA_run_02_block_000_trial_008.wav,07,01,English,B1,True,False,True,False,False,True,True,True,True,True,True,True,No,2,No,No,No,No,2020_Jul_19_1735,nibs_stage_1,3.2.3,59.99301991612457,
2,0,2,0,,,,,0,0,0,0,9,0,9,0,,,,,,,,,,,,,,,,,,,,,,,,,,,,,,,,,,,,,,,,,,,,,,,,,Listen to the question and speak out your answer!,1077.6989471912384,None,1077.6649974107743,1079.69837808609,Ich nahm meinen Stift und begann zu schreiben.,begann,1079.048354458809,1081.6651301383972,1082.0818234205246,None,1094.249143433571,None,1095.6658780574799,None,./data/Subject_07/Session_01/Exp_data/2020_Jul_19_1735/rec_QA_run_02_block_000_trial_009.wav,07,01,English,B1,True,False,True,False,False,True,True,True,True,True,True,True,No,2,No,No,No,No,2020_Jul_19_1735,nibs_stage_1,3.2.3,59.99301991612457,
2,0,2,0,,,,,0,0,0,0,10,0,10,0,,,,,,,,,,,,,,,,,,,,,,,,,,,,,,,,,,,,,,,,,,,,,,,,,Listen to the question and speak out your answer!,1098.73339509964,None,1098.6994959354402,1100.7328171730042,Manche Menschen kann mehr Fleisch als Gemüse essen.,essen,1100.0827875852585,None,1103.5162986040116,None,1115.283795428276,None,1116.7003030776978,None,./data/Subject_07/Session_01/Exp_data/2020_Jul_19_1735/rec_QA_run_02_block_000_trial_010.wav,07,01,English,B1,True,False,True,False,False,True,True,True,True,True,True,True,No,2,No,No,No,No,2020_Jul_19_1735,nibs_stage_1,3.2.3,59.99301991612457,
2,0,2,0,,,,,0,0,0,0,11,0,11,0,,,,,,,,,,,,,,,,,,,,,,,,,,,,,,,,,,,,,,,,,,,,,,,,,Listen to the question and speak out your answer!,1119.7505791187286,None,1119.7171395540238,1121.7506031990051,"Siehst du! Ich habe dir gesagt, dass es regnen würde.",gesagt,1121.100570511818,1124.5173871517181,1124.9340763807297,None,1136.3180135011673,None,1137.7347581386566,None,./data/Subject_07/Session_01/Exp_data/2020_Jul_19_1735/rec_QA_run_02_block_000_trial_011.wav,07,01,English,B1,True,False,True,False,False,True,True,True,True,True,True,True,No,2,No,No,No,No,2020_Jul_19_1735,nibs_stage_1,3.2.3,59.99301991612457,
2,0,2,0,,,,,0,0,0,0,12,0,12,0,,,,,,,,,,,,,,,,,,,,,,,,,,,,,,,,,,,,,,,,,,,,,,,,,Listen to the question and speak out your answer!,1140.8025000095367,None,1140.7850291490556,1142.8017921447754,Das iPhone wurde von Kalifornien entworfen und in China hergestellt. ,hergestellt,1142.184999537468,1146.60214304924,1146.985227417946,None,1157.3857954263688,1158.402526140213,1158.8025410175323,None,./data/Subject_07/Session_01/Exp_data/2020_Jul_19_1735/rec_QA_run_02_block_000_trial_012.wav,07,01,English,B1,True,False,True,False,False,True,True,True,True,True,True,True,No,2,No,No,No,No,2020_Jul_19_1735,nibs_stage_1,3.2.3,59.99301991612457,
2,0,2,0,,,,,0,0,0,0,13,0,13,0,,,,,,,,,,,,,,,,,,,,,,,,,,,,,,,,,,,,,,,,,,,,,,,,,Listen to the question and speak out your answer!,1161.869653224945,None,1161.8528051137926,1163.869371175766,Das Brot schmeckt lecker. ,schmeckt,1163.2527645349503,1164.8695240020752,1165.2527724027634,None,1178.420337510109,None,1179.836932182312,None,./data/Subject_07/Session_01/Exp_data/2020_Jul_19_1735/rec_QA_run_02_block_000_trial_013.wav,07,01,English,B1,True,False,True,False,False,True,True,True,True,True,True,True,No,2,No,No,No,No,2020_Jul_19_1735,nibs_stage_1,3.2.3,59.99301991612457,
2,0,2,0,,,,,0,0,0,0,14,0,14,0,,,,,,,,,,,,,,,,,,,,,,,,,,,,,,,,,,,,,,,,,,,,,,,,,Listen to the question and speak out your answer!,1182.921147108078,None,1182.8872301340105,1184.9205541610718,Die Bergsteiger sind in die Wand eingestiegen.,eingestiegen,1184.303840470314,None,1187.237346482277,1188.2540810108185,1199.5047446012497,None,1200.9213840961456,None,./data/Subject_07/Session_01/Exp_data/2020_Jul_19_1735/rec_QA_run_02_block_000_trial_014.wav,07,01,English,B1,True,False,True,False,False,True,True,True,True,True,True,True,No,2,No,No,No,No,2020_Jul_19_1735,nibs_stage_1,3.2.3,59.99301991612457,
2,0,2,0,,,,,0,0,0,0,15,0,15,0,,,,,,,,,,,,,,,,,,,,,,,,,,,,,,,,,,,,,,,,,,,,,,,,,Listen to the question and speak out your answer!,1203.955542087555,None,1203.9216658115388,1205.9549961090088,"Mein Zimmer ist zu unordentlich, also muss ich es aufräumen.",aufräumen,1205.3382786035538,None,1209.2384966135025,1210.2552030086517,1220.539072585106,None,1221.9558281898499,None,./data/Subject_07/Session_01/Exp_data/2020_Jul_19_1735/rec_QA_run_02_block_000_trial_015.wav,07,01,English,B1,True,False,True,False,False,True,True,True,True,True,True,True,No,2,No,No,No,No,2020_Jul_19_1735,nibs_stage_1,3.2.3,59.99301991612457,
2,0,2,0,,,,,0,0,0,0,16,0,16,0,,,,,,,,,,,,,,,,,,,,,,,,,,,,,,,,,,,,,,,,,,,,,,,,,Listen to the question and speak out your answer!,1225.0060670375824,None,1224.9726922273637,1227.0060691833496,"Wenn du dich einen Moment ausruhst, kannst du mehr leisten.",ausruhst,1226.3560446023941,1229.539545059204,1229.92289955616,None,1241.556857419014,None,1242.9735701084137,None,./data/Subject_07/Session_01/Exp_data/2020_Jul_19_1735/rec_QA_run_02_block_000_trial_016.wav,07,01,English,B1,True,False,True,False,False,True,True,True,True,True,True,True,No,2,No,No,No,No,2020_Jul_19_1735,nibs_stage_1,3.2.3,59.99301991612457,
2,0,2,0,,,,,0,0,0,0,17,0,17,0,,,,,,,,,,,,,,,,,,,,,,,,,,,,,,,,,,,,,,,,,,,,,,,,,Listen to the question and speak out your answer!,1246.0577261447906,None,1246.023857331276,1248.0571711063385,"Ich habe probiert, ihn zu überreden, aber er will nicht uns gehen. ",probiert,1247.4404605150223,1251.123999118805,1251.5073414564133,None,1262.641346526146,None,1264.0580101013184,None,./data/Subject_07/Session_01/Exp_data/2020_Jul_19_1735/rec_QA_run_02_block_000_trial_017.wav,07,01,English,B1,True,False,True,False,False,True,True,True,True,True,True,True,No,2,No,No,No,No,2020_Jul_19_1735,nibs_stage_1,3.2.3,59.99301991612457,
2,0,2,0,,,,,0,0,0,0,18,0,18,0,,,,,,,,,,,,,,,,,,,,,,,,,,,,,,,,,,,,,,,,,,,,,,,,,Listen to the question and speak out your answer!,1267.0930061340332,None,1267.0749261140825,1269.0916020870209,Der frühe Vogel kann den Wurm fangen.,fangen,1268.4749115228653,1270.7919251918793,1271.175054383278,None,1283.6756885766983,1284.6924149990082,1285.0924429893494,None,./data/Subject_07/Session_01/Exp_data/2020_Jul_19_1735/rec_QA_run_02_block_000_trial_018.wav,07,01,English,B1,True,False,True,False,False,True,True,True,True,True,True,True,No,2,No,No,No,No,2020_Jul_19_1735,nibs_stage_1,3.2.3,59.99301991612457,
2,0,2,0,,,,,0,0,0,0,19,0,19,0,,,,,,,,,,,,,,,,,,,,,,,,,,,,,,,,,,,,,,,,,,,,,,,,,Listen to the question and speak out your answer!,1288.1766061782837,None,1288.1427042245866,1290.1761231422424,Während einer Trocken-Zeit regnet es sehr selten.,regnet,1289.5260375261307,None,1292.8261714696885,None,1304.726815533638,1305.7438070774078,1306.143541097641,None,./data/Subject_07/Session_01/Exp_data/2020_Jul_19_1735/rec_QA_run_02_block_000_trial_019.wav,07,01,English,B1,True,False,True,False,False,True,True,True,True,True,True,True,No,2,No,No,No,No,2020_Jul_19_1735,nibs_stage_1,3.2.3,59.99301991612457,
2,0,2,0,,,,,0,0,0,0,20,0,20,0,,,,,,,,,,,,,,,,,,,,,,,,,,,,,,,,,,,,,,,,,,,,,,,,,Listen to the question and speak out your answer!,1309.2110872268677,None,1309.1772438526154,1311.2104890346527,"Ich hoffe, dass ich und meine Tante gute Freunde für immer bleiben können.",hoffe,1310.5604255914689,None,1315.027322602272,None,1325.761240553856,None,1327.177992105484,None,./data/Subject_07/Session_01/Exp_data/2020_Jul_19_1735/rec_QA_run_02_block_000_trial_020.wav,07,01,English,B1,True,False,True,False,False,True,True,True,True,True,True,True,No,2,No,No,No,No,2020_Jul_19_1735,nibs_stage_1,3.2.3,59.99301991612457,
2,0,2,0,,,,,0,0,0,0,21,0,21,0,,,,,,,,,,,,,,,,,,,,,,,,,,,,,,,,,,,,,,,,,,,,,,,,,Listen to the question and speak out your answer!,1330.2463290691376,None,1330.228242135048,1332.2449021339417,Die Teilnehmer müssen sich im Voraus für den Kurs anmelden.,anmelden,1331.628209424019,1335.078548192978,1335.4283955812455,None,1346.795699429512,1347.812382221222,1348.2123901844025,None,./data/Subject_07/Session_01/Exp_data/2020_Jul_19_1735/rec_QA_run_02_block_000_trial_021.wav,07,01,English,B1,True,False,True,False,False,True,True,True,True,True,True,True,No,2,No,No,No,No,2020_Jul_19_1735,nibs_stage_1,3.2.3,59.99301991612457,
2,0,2,0,,,,,0,0,0,0,22,0,22,0,,,,,,,,,,,,,,,,,,,,,,,,,,,,,,,,,,,,,,,,,,,,,,,,,Listen to the question and speak out your answer!,1351.281235218048,None,1351.2626633405687,1353.2793400287628,"Wir müssen ein Treffen planen, um die Änderungen zu besprechen.",planen,1352.6626294374466,1356.2795131206512,1356.6631143808365,None,1367.8635276079178,None,1369.280156135559,None,./data/Subject_07/Session_01/Exp_data/2020_Jul_19_1735/rec_QA_run_02_block_000_trial_022.wav,07,01,English,B1,True,False,True,False,False,True,True,True,True,True,True,True,No,2,No,No,No,No,2020_Jul_19_1735,nibs_stage_1,3.2.3,59.99301991612457,
2,0,2,0,,,,,0,0,0,0,23,0,23,0,,,,,,,,,,,,,,,,,,,,,,,,,,,,,,,,,,,,,,,,,,,,,,,,,Listen to the question and speak out your answer!,1372.330990076065,None,1372.297224354744,1374.3304200172424,"Kollegen versammelt sich zusammen, um ein neues Projekt zu planen.",planen,1373.6803904294968,1377.7306020259857,1378.1472905397416,None,1388.8811825037003,None,1390.2979621887207,None,./data/Subject_07/Session_01/Exp_data/2020_Jul_19_1735/rec_QA_run_02_block_000_trial_023.wav,07,01,English,B1,True,False,True,False,False,True,True,True,True,True,True,True,No,2,No,No,No,No,2020_Jul_19_1735,nibs_stage_1,3.2.3,59.99301991612457,
2,0,2,0,,,,,0,0,0,0,24,0,24,0,,,,,,,,,,,,,,,,,,,,,,,,,,,,,,,,,,,,,,,,,,,,,,,,,Listen to the question and speak out your answer!,1393.366544008255,None,1393.348103260994,1395.3648891448975,Die Atmosphäre der Erde besteht aus Luft.,besteht,1394.7482414960862,None,1397.9149814367295,1398.9316341876984,1409.9489703893662,1410.965648174286,1411.3658270835876,None,./data/Subject_07/Session_01/Exp_data/2020_Jul_19_1735/rec_QA_run_02_block_000_trial_024.wav,07,01,English,B1,True,False,True,False,False,True,True,True,True,True,True,True,No,2,No,No,No,No,2020_Jul_19_1735,nibs_stage_1,3.2.3,59.99301991612457,
2,0,2,0,,,,,0,0,0,0,,,,,,,,,,,,,,,,,,,,,,,,,,,,,,,,,,,,,,,,,,1415.3825850486755,None,,,,,,,,,,,,,,,,,,,,,,,,,,07,01,English,B1,True,False,True,False,False,True,True,True,True,True,True,True,No,2,No,No,No,No,2020_Jul_19_1735,nibs_stage_1,3.2.3,59.99301991612457,
2,0,2,0,,,,,1,0,1,0,0,0,0,0,,,,,,,,,,,,,,,,,,,,,,,,,,,,,,,,,,,,,,,,,,,,,,,,,Listen to the question and speak out your answer!,1430.6673362255096,None,1430.6335208177568,1432.6667971611023,Er konnte auf alle Fragen des Quiz antworten.,antworten,1432.0501526117325,1434.8002350330353,1435.1835923910141,1436.200236082077,1447.2508974790574,None,1448.667741060257,None,./data/Subject_07/Session_01/Exp_data/2020_Jul_19_1735/rec_QA_run_02_block_001_trial_000.wav,07,01,English,B1,True,False,True,False,False,True,True,True,True,True,True,True,No,2,No,No,No,No,2020_Jul_19_1735,nibs_stage_1,3.2.3,59.99301991612457,
2,0,2,0,,,,,1,0,1,0,1,0,1,0,,,,,,,,,,,,,,,,,,,,,,,,,,,,,,,,,,,,,,,,,,,,,,,,,Listen to the question and speak out your answer!,1451.7179090976715,None,1451.684595322609,1453.7178900241852,"Es ist mir einfach unbegreiflich, wie so etwas Dummes passiert.",passiert,1453.0681246042252,None,1457.3014086008072,1458.3181710243225,1468.2686775445939,None,1469.6854190826416,None,./data/Subject_07/Session_01/Exp_data/2020_Jul_19_1735/rec_QA_run_02_block_001_trial_001.wav,07,01,English,B1,True,False,True,False,False,True,True,True,True,True,True,True,No,2,No,No,No,No,2020_Jul_19_1735,nibs_stage_1,3.2.3,59.99301991612457,
2,0,2,0,,,,,1,0,1,0,2,0,2,0,,,,,,,,,,,,,,,,,,,,,,,,,,,,,,,,,,,,,,,,,,,,,,,,,Listen to the question and speak out your answer!,1472.7523121833801,None,1472.7190338611604,1474.7523300647736,Muss ich mit dem Bus fahren oder kann ich zu Fuß gehen?,gehen,1474.1356154203415,1477.2193131446838,1477.6024645090104,1478.619103193283,1489.336398434639,None,1490.753123998642,None,./data/Subject_07/Session_01/Exp_data/2020_Jul_19_1735/rec_QA_run_02_block_001_trial_002.wav,07,01,English,B1,True,False,True,False,False,True,True,True,True,True,True,True,No,2,No,No,No,No,2020_Jul_19_1735,nibs_stage_1,3.2.3,59.99301991612457,
2,0,2,0,,,,,1,0,1,0,3,0,3,0,,,,,,,,,,,,,,,,,,,,,,,,,,,,,,,,,,,,,,,,,,,,,,,,,Listen to the question and speak out your answer!,1493.787260055542,None,1493.7533449172975,1495.7867321968079,Mein älterer Bruder mag Rock spielen und hören.,hören,1495.1701055288315,1498.0870640277863,1498.4702153921128,None,1510.3709135770798,None,1511.7876241207123,None,./data/Subject_07/Session_01/Exp_data/2020_Jul_19_1735/rec_QA_run_02_block_001_trial_003.wav,07,01,English,B1,True,False,True,False,False,True,True,True,True,True,True,True,No,2,No,No,No,No,2020_Jul_19_1735,nibs_stage_1,3.2.3,59.99301991612457,
2,0,2,0,,,,,1,0,1,0,4,0,4,0,,,,,,,,,,,,,,,,,,,,,,,,,,,,,,,,,,,,,,,,,,,,,,,,,Listen to the question and speak out your answer!,1514.8217301368713,None,1514.7878257274629,1516.8211581707,Der Wirkstoff im Kaffee heißt Koffein.,heißt,1516.2043934583664,None,1519.1378834962845,None,1531.388507437706,None,1532.8053510189056,None,./data/Subject_07/Session_01/Exp_data/2020_Jul_19_1735/rec_QA_run_02_block_001_trial_004.wav,07,01,English,B1,True,False,True,False,False,True,True,True,True,True,True,True,No,2,No,No,No,No,2020_Jul_19_1735,nibs_stage_1,3.2.3,59.99301991612457,
2,0,2,0,,,,,1,0,1,0,5,0,5,0,,,,,,,,,,,,,,,,,,,,,,,,,,,,,,,,,,,,,,,,,,,,,,,,,Listen to the question and speak out your answer!,1535.8895452022552,None,1535.8557033300401,1537.8889281749725,"Das sind Wörter, die vor allem junge Leute benutzen.",benutzen,1537.2389045476914,1540.355740070343,1540.7724345445633,None,1552.4396975755692,1553.4564130306244,1553.8564372062683,None,./data/Subject_07/Session_01/Exp_data/2020_Jul_19_1735/rec_QA_run_02_block_001_trial_005.wav,07,01,English,B1,True,False,True,False,False,True,True,True,True,True,True,True,No,2,No,No,No,No,2020_Jul_19_1735,nibs_stage_1,3.2.3,59.99301991612457,
2,0,2,0,,,,,1,0,1,0,6,0,6,0,,,,,,,,,,,,,,,,,,,,,,,,,,,,,,,,,,,,,,,,,,,,,,,,,Listen to the question and speak out your answer!,1556.9407482147217,None,1556.9067332506181,1558.940201997757,In Österreich darf ein Präsident sechs Jahre regieren.,regieren,1558.290026497841,1561.6402750015259,1562.0568605184556,None,1573.4907766103745,None,1574.907606124878,None,./data/Subject_07/Session_01/Exp_data/2020_Jul_19_1735/rec_QA_run_02_block_001_trial_006.wav,07,01,English,B1,True,False,True,False,False,True,True,True,True,True,True,True,No,2,No,No,No,No,2020_Jul_19_1735,nibs_stage_1,3.2.3,59.99301991612457,
2,0,2,0,,,,,1,0,1,0,7,0,7,0,,,,,,,,,,,,,,,,,,,,,,,,,,,,,,,,,,,,,,,,,,,,,,,,,Listen to the question and speak out your answer!,1577.9746961593628,None,1577.957784152031,1579.974445104599,Floras Eltern machen eine Kreuzfahrt mit einem riesigen Schiff auf dem Meer.,machen,1579.357756447792,None,1584.158011507988,None,1594.5585504293442,None,1595.9754061698914,None,./data/Subject_07/Session_01/Exp_data/2020_Jul_19_1735/rec_QA_run_02_block_001_trial_007.wav,07,01,English,B1,True,False,True,False,False,True,True,True,True,True,True,True,No,2,No,No,No,No,2020_Jul_19_1735,nibs_stage_1,3.2.3,59.99301991612457,
2,0,2,0,,,,,1,0,1,0,8,0,8,0,,,,,,,,,,,,,,,,,,,,,,,,,,,,,,,,,,,,,,,,,,,,,,,,,Listen to the question and speak out your answer!,1599.0593810081482,None,1599.0258381128313,1601.0588870048523,Man kann sich Bilder und Videos von anderen Menschen auf Instagram anschauen.,anschauen,1600.442198586464,None,1605.3091054677964,None,1615.64298350811,None,1617.0598521232605,None,./data/Subject_07/Session_01/Exp_data/2020_Jul_19_1735/rec_QA_run_02_block_001_trial_008.wav,07,01,English,B1,True,False,True,False,False,True,True,True,True,True,True,True,No,2,No,No,No,No,2020_Jul_19_1735,nibs_stage_1,3.2.3,59.99301991612457,
2,0,2,0,,,,,1,0,1,0,9,0,9,0,,,,,,,,,,,,,,,,,,,,,,,,,,,,,,,,,,,,,,,,,,,,,,,,,Listen to the question and speak out your answer!,1620.0945370197296,None,1620.0766372442247,1622.093334197998,"Wir müssen genau planen, was wir tun wollen.",planen,1621.4766155004502,1624.160078048706,1624.5434175252915,1625.5601580142975,1636.6774035215378,None,1638.094148159027,None,./data/Subject_07/Session_01/Exp_data/2020_Jul_19_1735/rec_QA_run_02_block_001_trial_009.wav,07,01,English,B1,True,False,True,False,False,True,True,True,True,True,True,True,No,2,No,No,No,No,2020_Jul_19_1735,nibs_stage_1,3.2.3,59.99301991612457,
2,0,2,0,,,,,1,0,1,0,10,0,10,0,,,,,,,,,,,,,,,,,,,,,,,,,,,,,,,,,,,,,,,,,,,,,,,,,Listen to the question and speak out your answer!,1641.1615362167358,None,1641.1277247905732,1643.161152124405,Meine Uhr zeigt die aktuelle Uhrzeit in Berlin und New York an.,zeigt,1642.5443924188614,None,1646.911459517479,None,1657.7454844236374,None,1659.1619820594788,None,./data/Subject_07/Session_01/Exp_data/2020_Jul_19_1735/rec_QA_run_02_block_001_trial_010.wav,07,01,English,B1,True,False,True,False,False,True,True,True,True,True,True,True,No,2,No,No,No,No,2020_Jul_19_1735,nibs_stage_1,3.2.3,59.99301991612457,
2,0,2,0,,,,,1,0,1,0,11,0,11,0,,,,,,,,,,,,,,,,,,,,,,,,,,,,,,,,,,,,,,,,,,,,,,,,,Listen to the question and speak out your answer!,1662.1973760128021,None,1662.1788491964342,1664.1955242156982,Dieser Supermarkt hat nur am Tage geöffnet.,geöffnet,1663.5788865804673,1666.3625800609589,1666.7456355810166,None,1678.7795894861222,None,1680.1963341236115,None,./data/Subject_07/Session_01/Exp_data/2020_Jul_19_1735/rec_QA_run_02_block_001_trial_011.wav,07,01,English,B1,True,False,True,False,False,True,True,True,True,True,True,True,No,2,No,No,No,No,2020_Jul_19_1735,nibs_stage_1,3.2.3,59.99301991612457,
2,0,2,0,,,,,1,0,1,0,12,0,12,0,,,,,,,,,,,,,,,,,,,,,,,,,,,,,,,,,,,,,,,,,,,,,,,,,Listen to the question and speak out your answer!,1683.2649600505829,None,1683.2465252637865,1685.2633271217346,"Es gibt viele Vorteile, wenn man die öffentlichen Verkehrsmittel benutzt.",benutzt,1684.6469155073166,None,1689.2801714658738,None,1699.8142154932023,None,1701.2307381629944,None,./data/Subject_07/Session_01/Exp_data/2020_Jul_19_1735/rec_QA_run_02_block_001_trial_012.wav,07,01,English,B1,True,False,True,False,False,True,True,True,True,True,True,True,No,2,No,No,No,No,2020_Jul_19_1735,nibs_stage_1,3.2.3,59.99301991612457,
2,0,2,0,,,,,1,0,1,0,13,0,13,0,,,,,,,,,,,,,,,,,,,,,,,,,,,,,,,,,,,,,,,,,,,,,,,,,Listen to the question and speak out your answer!,1704.314908027649,None,1704.2810072660448,1706.3143692016602,Eine Stunde kann man in Minuten und Sekunden unterteilen.,unterteilen,1705.6643265008927,1709.1145000457764,1709.497793507576,None,1720.8651076078415,None,1722.2818450927734,None,./data/Subject_07/Session_01/Exp_data/2020_Jul_19_1735/rec_QA_run_02_block_001_trial_013.wav,07,01,English,B1,True,False,True,False,False,True,True,True,True,True,True,True,No,2,No,No,No,No,2020_Jul_19_1735,nibs_stage_1,3.2.3,59.99301991612457,
2,0,2,0,,,,,1,0,1,0,14,0,14,0,,,,,,,,,,,,,,,,,,,,,,,,,,,,,,,,,,,,,,,,,,,,,,,,,Listen to the question and speak out your answer!,1725.349415063858,None,1725.3154479503633,1727.3489091396332,Ich bin krank und bleibe heute im Bett.,bleibe,1726.7321995019913,1729.1488602161407,1729.5325484991074,None,1741.932868552208,None,1743.34961104393,None,./data/Subject_07/Session_01/Exp_data/2020_Jul_19_1735/rec_QA_run_02_block_001_trial_014.wav,07,01,English,B1,True,False,True,False,False,True,True,True,True,True,True,True,No,2,No,No,No,No,2020_Jul_19_1735,nibs_stage_1,3.2.3,59.99301991612457,
2,0,2,0,,,,,1,0,1,0,15,0,15,0,,,,,,,,,,,,,,,,,,,,,,,,,,,,,,,,,,,,,,,,,,,,,,,,,Listen to the question and speak out your answer!,1746.4003810882568,None,1746.3665451765062,1748.3998601436615,"Nachdem mein erster Versuch gescheitert war, probierte ich es noch einmal.",probierte,1747.7498305559159,1751.866723060608,1752.2500665903092,None,1762.9506555318833,None,1764.3673741817474,None,./data/Subject_07/Session_01/Exp_data/2020_Jul_19_1735/rec_QA_run_02_block_001_trial_015.wav,07,01,English,B1,True,False,True,False,False,True,True,True,True,True,True,True,No,2,No,No,No,No,2020_Jul_19_1735,nibs_stage_1,3.2.3,59.99301991612457,
2,0,2,0,,,,,1,0,1,0,16,0,16,0,,,,,,,,,,,,,,,,,,,,,,,,,,,,,,,,,,,,,,,,,,,,,,,,,Listen to the question and speak out your answer!,1767.4343090057373,None,1767.4009648799897,1769.4342851638794,"Es ist vorstellbar, dass er diese schwierige Prüfung nicht bestehen kann. ",bestehen,1768.8176184415818,None,1773.3511734724045,None,1784.018417429924,None,1785.4351270198822,None,./data/Subject_07/Session_01/Exp_data/2020_Jul_19_1735/rec_QA_run_02_block_001_trial_016.wav,07,01,English,B1,True,False,True,False,False,True,True,True,True,True,True,True,No,2,No,No,No,No,2020_Jul_19_1735,nibs_stage_1,3.2.3,59.99301991612457,
2,0,2,0,,,,,1,0,1,0,17,0,17,0,,,,,,,,,,,,,,,,,,,,,,,,,,,,,,,,,,,,,,,,,,,,,,,,,Listen to the question and speak out your answer!,1788.485962152481,None,1788.4519912958147,1790.4854261875153,Die Anlage arbeitet vollautomatisch.,arbeitet,1789.8353615522385,1792.3855969905853,1792.8021424531937,1793.818899154663,1805.036194396019,1806.0528631210327,1806.452882051468,None,./data/Subject_07/Session_01/Exp_data/2020_Jul_19_1735/rec_QA_run_02_block_001_trial_017.wav,07,01,English,B1,True,False,True,False,False,True,True,True,True,True,True,True,No,2,No,No,No,No,2020_Jul_19_1735,nibs_stage_1,3.2.3,59.99301991612457,
2,0,2,0,,,,,1,0,1,0,18,0,18,0,,,,,,,,,,,,,,,,,,,,,,,,,,,,,,,,,,,,,,,,,,,,,,,,,Listen to the question and speak out your answer!,1809.5037081241608,None,1809.4699655294419,1811.5030632019043,"Melanie sieht so schlecht, sie braucht eine Brille.",braucht,1810.8531265974045,1813.8032710552216,1814.1866424798966,None,1826.0538855314255,None,1827.4706571102142,None,./data/Subject_07/Session_01/Exp_data/2020_Jul_19_1735/rec_QA_run_02_block_001_trial_018.wav,07,01,English,B1,True,False,True,False,False,True,True,True,True,True,True,True,No,2,No,No,No,No,2020_Jul_19_1735,nibs_stage_1,3.2.3,59.99301991612457,
2,0,2,0,,,,,1,0,1,0,19,0,19,0,,,,,,,,,,,,,,,,,,,,,,,,,,,,,,,,,,,,,,,,,,,,,,,,,Listen to the question and speak out your answer!,1830.538134098053,None,1830.5042499542237,1832.5375690460205,"Ich möchte dich nicht täuschen, also werde ich dir die Wahrheit sagen.",täuschen,1831.9208853960038,None,1836.0544396162034,None,1847.1216796159745,None,1848.5384011268616,None,./data/Subject_07/Session_01/Exp_data/2020_Jul_19_1735/rec_QA_run_02_block_001_trial_019.wav,07,01,English,B1,True,False,True,False,False,True,True,True,True,True,True,True,No,2,No,No,No,No,2020_Jul_19_1735,nibs_stage_1,3.2.3,59.99301991612457,
2,0,2,0,,,,,1,0,1,0,20,0,20,0,,,,,,,,,,,,,,,,,,,,,,,,,,,,,,,,,,,,,,,,,,,,,,,,,Listen to the question and speak out your answer!,1851.5892400741577,None,1851.555348134041,1853.5886662006378,Lisa kann schon mit großen Zahlen rechnen.,rechnen,1852.9386444807053,None,1856.0055535554886,None,1868.139589381218,None,1869.556160211563,None,./data/Subject_07/Session_01/Exp_data/2020_Jul_19_1735/rec_QA_run_02_block_001_trial_020.wav,07,01,English,B1,True,False,True,False,False,True,True,True,True,True,True,True,No,2,No,No,No,No,2020_Jul_19_1735,nibs_stage_1,3.2.3,59.99301991612457,
2,0,2,0,,,,,1,0,1,0,21,0,21,0,,,,,,,,,,,,,,,,,,,,,,,,,,,,,,,,,,,,,,,,,,,,,,,,,Listen to the question and speak out your answer!,1872.623565196991,None,1872.6064102411272,1874.6231009960175,Am nächsten Bahnhof muss ich aus dem Zug aussteigen.,aussteigen,1874.0064125776291,None,1877.5064864873887,None,1889.2077143907547,None,1890.6238992214203,None,./data/Subject_07/Session_01/Exp_data/2020_Jul_19_1735/rec_QA_run_02_block_001_trial_021.wav,07,01,English,B1,True,False,True,False,False,True,True,True,True,True,True,True,No,2,No,No,No,No,2020_Jul_19_1735,nibs_stage_1,3.2.3,59.99301991612457,
2,0,2,0,,,,,1,0,1,0,22,0,22,0,,,,,,,,,,,,,,,,,,,,,,,,,,,,,,,,,,,,,,,,,,,,,,,,,Listen to the question and speak out your answer!,1893.707967042923,None,1893.67419025898,1895.7074890136719,Abends essen wir meistens kalt.,essen,1895.090818476677,None,1897.4909265756608,None,1910.2916184186936,None,1911.7082650661469,None,./data/Subject_07/Session_01/Exp_data/2020_Jul_19_1735/rec_QA_run_02_block_001_trial_022.wav,07,01,English,B1,True,False,True,False,False,True,True,True,True,True,True,True,No,2,No,No,No,No,2020_Jul_19_1735,nibs_stage_1,3.2.3,59.99301991612457,
2,0,2,0,,,,,1,0,1,0,23,0,23,0,,,,,,,,,,,,,,,,,,,,,,,,,,,,,,,,,,,,,,,,,,,,,,,,,Listen to the question and speak out your answer!,1914.725839138031,None,1914.6920214414597,1916.725298166275,"Ob die bereitgestellte Information korrekt ist, müssen wir prüfen.",prüfen,1916.0752394914628,None,1920.5754805326462,None,1931.2760325193406,None,1932.6927371025085,None,./data/Subject_07/Session_01/Exp_data/2020_Jul_19_1735/rec_QA_run_02_block_001_trial_023.wav,07,01,English,B1,True,False,True,False,False,True,True,True,True,True,True,True,No,2,No,No,No,No,2020_Jul_19_1735,nibs_stage_1,3.2.3,59.99301991612457,
2,0,2,0,,,,,1,0,1,0,24,0,24,0,,,,,,,,,,,,,,,,,,,,,,,,,,,,,,,,,,,,,,,,,,,,,,,,,Listen to the question and speak out your answer!,1935.761193037033,None,1935.7430221796037,1937.7597131729126,"Wir mussten ein amtliches Formular ausfüllen, als wir geheiratet haben.",ausfüllen,1937.1430075883866,1941.4600031375885,1941.8432443857193,None,1952.3438065767289,None,1953.7605350017548,None,./data/Subject_07/Session_01/Exp_data/2020_Jul_19_1735/rec_QA_run_02_block_001_trial_024.wav,07,01,English,B1,True,False,True,False,False,True,True,True,True,True,True,True,No,2,No,No,No,No,2020_Jul_19_1735,nibs_stage_1,3.2.3,59.99301991612457,
