run.thisRepN,run.thisTrialN,run.thisN,run.thisIndex,artifact_trial.thisRepN,artifact_trial.thisTrialN,artifact_trial.thisN,artifact_trial.thisIndex,QA_block.thisRepN,QA_block.thisTrialN,QA_block.thisN,QA_block.thisIndex,QA_trial.thisRepN,QA_trial.thisTrialN,QA_trial.thisN,QA_trial.thisIndex,fade_in_text.text,fade_in_text.started,fade_in_text.stopped,Artifact_intro_title.started,Artifact_intro_title.stopped,Artifact_intro_text.text,Artifact_intro_text.started,Artifact_intro_text.stopped,Artifact_intro_audio.started,Artifact_intro_audio.stopped,Artifact_intro_cont.started,Artifact_intro_cont.stopped,Artifact_rec_text.text,Artifact_rec_text.started,Artifact_rec_text.stopped,Artifact_rec_beep_hint.started,Artifact_rec_beep_hint.stopped,Artifact_rec_action.started,Artifact_rec_action.stopped,Artifact_rec_beep_start.started,Artifact_rec_beep_start.stopped,Artifact_rec_recording.started,Artifact_rec_recording.stopped,Artifact_rec_beep_end.started,Artifact_rec_beep_end.stopped,Artifact_rec_break.started,Artifact_rec_break.stopped,RS_intro_title.started,RS_intro_title.stopped,RS_intro_text.text,RS_intro_text.started,RS_intro_text.stopped,RS_intro_audio.started,RS_intro_audio.stopped,RS_rec_text.text,RS_rec_text.started,RS_rec_text.stopped,Pause_cont.started,Pause_cont.stopped,QA_intro_title.started,QA_intro_title.stopped,QA_intro_text.text,QA_intro_text.started,QA_intro_text.stopped,QA_intro_audio.started,QA_intro_audio.stopped,QA_intro_cont.started,QA_intro_cont.stopped,QA_rec_text.text,QA_rec_text.started,QA_rec_text.stopped,QA_rec_beep_hint.started,QA_rec_beep_hint.stopped,QA_rec_question.sen_text,QA_rec_question.cen_text,QA_rec_question.started,QA_rec_question.stopped,QA_rec_beep_start.started,QA_rec_beep_start.stopped,QA_rec_beep_end.started,QA_rec_beep_end.stopped,QA_rec_break.started,QA_rec_break.stopped,filename,participant,session,First language,German level,Full_screen,Instruction,Intro,Artifact,Cali_pre,Fade_in_out,Artifact_within,Resting_State,QA,Pause,Cali_post,End,Breakpoint_Cali_pre_trial,Breakpoint_Run,Breakpoint_RS_block,Breakpoint_QA_block,Breakpoint_QA_trial,Breakpoint_Cali_post_trial,date,expName,psychopyVersion,frameRate,
2,0,2,0,0,0,0,0,,,,,,,,,Please remain seated until further instruction via the earphone.,59.79074692726135,None,61.82447409629822,88.82554697990417,"  - Task: Artifacts collection   
  - Please follow audio instruction              
",61.82447409629822,88.82554697990417,61.807512640953064,None,88.19224095344543,None,,91.02571201324463,None,91.00874865055084,93.00928592681885,92.39246642589569,None,95.79263150691986,None,97.1927045583725,107.193195104599,107.59321558475494,108.59327006340027,108.99344110488892,109.9933729171753,,,,,,,,,,,,,,,,,,,,,,,,,,,,,,,,,,,,,,03,01,English,A2,True,False,True,False,False,True,True,True,True,True,True,True,No,2,No,No,No,No,2020_Jul_08_1209,nibs_stage_1,3.2.3,60.0243571891632,
2,0,2,0,1,0,1,0,,,,,,,,,,,,,,,,,,,,,,113.04349398612976,None,113.02684962749481,115.0269660949707,114.41044461727142,None,117.81045544147491,None,119.21050250530243,129.21100401878357,129.61102950572968,130.61107397079468,131.01109099388123,132.01106595993042,,,,,,,,,,,,,,,,,,,,,,,,,,,,,,,,,,,,,,03,01,English,A2,True,False,True,False,False,True,True,True,True,True,True,True,No,2,No,No,No,No,2020_Jul_08_1209,nibs_stage_1,3.2.3,60.0243571891632,
2,0,2,0,2,0,2,0,,,,,,,,,,,,,,,,,,,,,,135.04509711265564,None,135.044628739357,137.04475712776184,136.4282065629959,None,139.82823741436005,None,141.22829639911652,151.22895002365112,151.6288424730301,152.62878108024597,153.0288200378418,154.0289430618286,,,,,,,,,,,,,,,,,,,,,,,,,,,,,,,,,,,,,,03,01,English,A2,True,False,True,False,False,True,True,True,True,True,True,True,No,2,No,No,No,No,2020_Jul_08_1209,nibs_stage_1,3.2.3,60.0243571891632,
2,0,2,0,3,0,3,0,,,,,,,,,,,,,,,,,,,,,,157.06223702430725,157.06223702430725,157.04578864574432,159.0456681251526,158.44571149349213,None,161.84581744670868,162.84585690498352,163.24587547779083,173.24639797210693,173.64641749858856,174.64655804634094,175.0465829372406,176.04674196243286,,,,,,,,,,,,,,,,,,,,,,,,,,,,,,,,,,,,,,03,01,English,A2,True,False,True,False,False,True,True,True,True,True,True,True,No,2,No,No,No,No,2020_Jul_08_1209,nibs_stage_1,3.2.3,60.0243571891632,
2,0,2,0,4,0,4,0,,,,,,,,,,,,,,,,,,,,,,179.06395506858826,None,179.06337082386017,181.06368708610535,180.4470134973526,None,183.84716641902924,None,185.24724543094635,195.24778509140015,195.64778554439545,196.64781999588013,197.04785895347595,198.04807305335999,,,,,,,,,,,,,,,,,,,,,,,,,,,,,,,,,,,,,,03,01,English,A2,True,False,True,False,False,True,True,True,True,True,True,True,No,2,No,No,No,No,2020_Jul_08_1209,nibs_stage_1,3.2.3,60.0243571891632,
2,0,2,0,5,0,5,0,,,,,,,,,,,,,,,,,,,,,,201.0812530517578,201.0812530517578,201.06471979618073,203.0647029876709,202.46465742588043,None,205.8648294210434,None,207.26488149166107,217.26542901992798,217.66545855998993,None,219.0654580593109,220.06554412841797,,,,,,,,,,,,,,,,,,,,,,,,,,,,,,,,,,,,,,03,01,English,A2,True,False,True,False,False,True,True,True,True,True,True,True,No,2,No,No,No,No,2020_Jul_08_1209,nibs_stage_1,3.2.3,60.0243571891632,
2,0,2,0,6,0,6,0,,,,,,,,,,,,,,,,,,,,,,223.08305501937866,None,223.08241164684296,225.0824899673462,224.46584451198578,None,227.8659554719925,None,229.26594054698944,239.26642107963562,239.66643846035004,None,241.06659412384033,242.06664299964905,,,,,,,,,,,,,,,,,,,,,,,,,,,,,,,,,,,,,,03,01,English,A2,True,False,True,False,False,True,True,True,True,True,True,True,No,2,No,No,No,No,2020_Jul_08_1209,nibs_stage_1,3.2.3,60.0243571891632,
2,0,2,0,7,0,7,0,,,,,,,,,,,,,,,,,,,,,,245.10107493400574,245.10107493400574,245.10025119781494,247.1003589630127,246.48377454280853,249.48461198806763,249.8837035894394,None,251.28378355503082,261.2843270301819,261.684245467186,None,263.0844099521637,264.08443307876587,,,,,,,,,,,,,,,,,,,,,,,,,,,,,,,,,,,,,,03,01,English,A2,True,False,True,False,False,True,True,True,True,True,True,True,No,2,No,No,No,No,2020_Jul_08_1209,nibs_stage_1,3.2.3,60.0243571891632,
2,0,2,0,8,0,8,0,,,,,,,,,,,,,,,,,,,,,,267.1185200214386,267.1185200214386,267.1178631782532,269.118026971817,268.50137746334076,271.5015060901642,271.90151846408844,None,273.30158746242523,283.3026919364929,283.7024315595627,284.702476978302,285.102499961853,286.1024580001831,,,,,,,,,,,,,,,,,,,,,,,,,,,,,,,,,,,,,,03,01,English,A2,True,False,True,False,False,True,True,True,True,True,True,True,No,2,No,No,No,No,2020_Jul_08_1209,nibs_stage_1,3.2.3,60.0243571891632,
2,0,2,0,9,0,9,0,,,,,,,,,,,,,,,,,,,,,,289.1359860897064,None,289.1190468072891,291.11917996406555,290.50246942043304,293.5027220249176,293.9027456045151,None,295.302822470665,305.30331802368164,305.7201656103134,None,307.10335397720337,308.10345911979675,,,,,,,,,,,,,,,,,,,,,,,,,,,,,,,,,,,,,,03,01,English,A2,True,False,True,False,False,True,True,True,True,True,True,True,No,2,No,No,No,No,2020_Jul_08_1209,nibs_stage_1,3.2.3,60.0243571891632,
2,0,2,0,10,0,10,0,,,,,,,,,,,,,,,,,,,,,,311.15355610847473,None,311.13698065280914,313.13698506355286,312.5202885866165,None,315.9205585718155,None,317.32060754299164,327.32114911079407,327.72108948230743,None,329.1211540699005,330.1212079524994,,,,,,,,,,,,,,,,,,,,,,,,,,,,,,,,,,,,,,03,01,English,A2,True,False,True,False,False,True,True,True,True,True,True,True,No,2,No,No,No,No,2020_Jul_08_1209,nibs_stage_1,3.2.3,60.0243571891632,
2,0,2,0,11,0,11,0,,,,,,,,,,,,,,,,,,,,,,333.1713800430298,None,333.1548846960068,335.1548681259155,334.53813540935516,None,337.93822062015533,None,339.33865344524384,349.3393540382385,349.73911941051483,None,351.1723220348358,352.1727421283722,,,,,,,,,,,,,,,,,,,,,,,,,,,,,,,,,,,,,,03,01,English,A2,True,False,True,False,False,True,True,True,True,True,True,True,No,2,No,No,No,No,2020_Jul_08_1209,nibs_stage_1,3.2.3,60.0243571891632,
2,0,2,0,12,0,12,0,,,,,,,,,,,,,,,,,,,,,,355.1894221305847,None,355.17267978191376,357.17288303375244,356.55613458156586,359.5562860965729,359.95631539821625,None,361.3563905954361,371.35695910453796,371.7569054365158,372.7569830417633,373.1569490432739,374.1570451259613,,,,,,,,,,,,,,,,,,,,,,,,,,,,,,,,,,,,,,03,01,English,A2,True,False,True,False,False,True,True,True,True,True,True,True,No,2,No,No,No,No,2020_Jul_08_1209,nibs_stage_1,3.2.3,60.0243571891632,
2,0,2,0,13,0,13,0,,,,,,,,,,,,,,,,,,,,,,377.2072501182556,None,377.19064581394196,379.1906430721283,378.57398450374603,None,381.9741915464401,None,383.3742524385452,393.37480092048645,393.7748314142227,394.77470302581787,395.1748080253601,396.1748549938202,,,,,,,,,,,,,,,,,,,,,,,,,,,,,,,,,,,,,,03,01,English,A2,True,False,True,False,False,True,True,True,True,True,True,True,No,2,No,No,No,No,2020_Jul_08_1209,nibs_stage_1,3.2.3,60.0243571891632,
2,0,2,0,14,0,14,0,,,,,,,,,,,,,,,,,,,,,,399.2250859737396,None,399.20844662189484,401.2084391117096,400.59165251255035,None,403.9920884370804,None,405.3920155763626,415.3927631378174,415.7925354242325,None,417.1926820278168,418.1926620006561,,,,,,,,,,,,,,,,,,,,,,,,,,,,,,,,,,,,,,03,01,English,A2,True,False,True,False,False,True,True,True,True,True,True,True,No,2,No,No,No,No,2020_Jul_08_1209,nibs_stage_1,3.2.3,60.0243571891632,
2,0,2,0,,,,,0,0,0,0,0,0,0,0,,,,,,,,,,,,,,,,,,,,,,,,,,,,628.6701340675354,None," - Task: Keep seated and relaxed with either      
             opening or closing eyes                  
 - Beep sound with decreasing pitch: Block finish 
",628.6701340675354,None,628.6534161567688,None,"Please keep relaxed and close your eyes.
",651.7045559883118,831.7472169399261,835.1141729354858,None,849.4816980361938,None," - Task: Listen to the question& Speak out answer 
 - Melodious beep sound: Trial start              
 - Silent sound (blank): censored word            
 - Beep sound with increasing pitch: Rec. start   
 - Beep sound with decreasing pitch: Rec. finish  
",849.4816980361938,None,849.4647938013077,None,888.9001679420471,None,Listen to the question and speak out your answer!,892.5343940258026,None,892.5003573894501,894.5339019298553,Das Schloss liegt innerhalb der Stadtmauern.,liegt,893.91719353199,896.3339099884033,896.7173343896866,None,909.1180154085159,910.1346111297607,910.5346350669861,None,./data/Subject_03/Session_01/Exp_data/2020_Jul_08_1209/rec_QA_run_02_block_000_trial_000.wav,03,01,English,A2,True,False,True,False,False,True,True,True,True,True,True,True,No,2,No,No,No,No,2020_Jul_08_1209,nibs_stage_1,3.2.3,60.0243571891632,
2,0,2,0,,,,,0,0,0,0,1,0,1,0,,,,,,,,,,,,,,,,,,,,,,,,,,,,,,,,,,,,,,,,,,,,,,,,,Listen to the question and speak out your answer!,913.5682399272919,None,913.53480219841,915.5682690143585,Das Auge ermöglicht Tieren das Sehen.,ermöglicht,914.9515105485916,None,917.7183386087418,918.735023021698,930.1523114442825,None,931.5690529346466,None,./data/Subject_03/Session_01/Exp_data/2020_Jul_08_1209/rec_QA_run_02_block_000_trial_001.wav,03,01,English,A2,True,False,True,False,False,True,True,True,True,True,True,True,No,2,No,No,No,No,2020_Jul_08_1209,nibs_stage_1,3.2.3,60.0243571891632,
2,0,2,0,,,,,0,0,0,0,2,0,2,0,,,,,,,,,,,,,,,,,,,,,,,,,,,,,,,,,,,,,,,,,,,,,,,,,Listen to the question and speak out your answer!,934.5864770412445,None,934.5693581104279,936.5859940052032,Mit dem Rezept kann man die Medizin in der Apotheke kaufen.,kaufen,935.9692956209183,939.6194679737091,940.0028215646744,None,951.1534074544907,None,952.5701661109924,None,./data/Subject_03/Session_01/Exp_data/2020_Jul_08_1209/rec_QA_run_02_block_000_trial_002.wav,03,01,English,A2,True,False,True,False,False,True,True,True,True,True,True,True,No,2,No,No,No,No,2020_Jul_08_1209,nibs_stage_1,3.2.3,60.0243571891632,
2,0,2,0,,,,,0,0,0,0,3,0,3,0,,,,,,,,,,,,,,,,,,,,,,,,,,,,,,,,,,,,,,,,,,,,,,,,,Listen to the question and speak out your answer!,955.6370599269867,None,955.6036422252655,957.6370711326599,Ich werde meinen Geburtstag morgen mit meinen Freunden feiern.,feiern,957.0203706026077,None,961.0205825567245,None,972.22116959095,None,973.6379051208496,None,./data/Subject_03/Session_01/Exp_data/2020_Jul_08_1209/rec_QA_run_02_block_000_trial_003.wav,03,01,English,A2,True,False,True,False,False,True,True,True,True,True,True,True,No,2,No,No,No,No,2020_Jul_08_1209,nibs_stage_1,3.2.3,60.0243571891632,
2,0,2,0,,,,,0,0,0,0,4,0,4,0,,,,,,,,,,,,,,,,,,,,,,,,,,,,,,,,,,,,,,,,,,,,,,,,,Listen to the question and speak out your answer!,976.6715281009674,None,976.6380603313446,978.6715121269226,Mein Hund hat ein paar Tricks gelernt. ,gelernt,978.0548003911972,980.1384289264679,980.4882675409317,None,993.2222534418106,None,994.6390409469604,None,./data/Subject_03/Session_01/Exp_data/2020_Jul_08_1209/rec_QA_run_02_block_000_trial_004.wav,03,01,English,A2,True,False,True,False,False,True,True,True,True,True,True,True,No,2,No,No,No,No,2020_Jul_08_1209,nibs_stage_1,3.2.3,60.0243571891632,
2,0,2,0,,,,,0,0,0,0,5,0,5,0,,,,,,,,,,,,,,,,,,,,,,,,,,,,,,,,,,,,,,,,,,,,,,,,,Listen to the question and speak out your answer!,997.6901230812073,None,997.6724841594696,999.689248085022,"Er muss arbeiten, um seine beiden Kinder großzuziehen.",arbeiten,999.0725284814835,1002.356073141098,1002.7060796022415,1003.7228019237518,1014.2733515501022,None,1015.6902461051941,None,./data/Subject_03/Session_01/Exp_data/2020_Jul_08_1209/rec_QA_run_02_block_000_trial_005.wav,03,01,English,A2,True,False,True,False,False,True,True,True,True,True,True,True,No,2,No,No,No,No,2020_Jul_08_1209,nibs_stage_1,3.2.3,60.0243571891632,
2,0,2,0,,,,,0,0,0,0,6,0,6,0,,,,,,,,,,,,,,,,,,,,,,,,,,,,,,,,,,,,,,,,,,,,,,,,,Listen to the question and speak out your answer!,1018.7406871318817,None,1018.7235722541809,1020.7403371334076,Wir haben den Empfang der Sendung bestätigt.,bestätigt,1020.1237725019455,1022.6404349803925,1023.0237995386124,None,1035.324427485466,None,1036.7411561012268,None,./data/Subject_03/Session_01/Exp_data/2020_Jul_08_1209/rec_QA_run_02_block_000_trial_006.wav,03,01,English,A2,True,False,True,False,False,True,True,True,True,True,True,True,No,2,No,No,No,No,2020_Jul_08_1209,nibs_stage_1,3.2.3,60.0243571891632,
2,0,2,0,,,,,0,0,0,0,7,0,7,0,,,,,,,,,,,,,,,,,,,,,,,,,,,,,,,,,,,,,,,,,,,,,,,,,Listen to the question and speak out your answer!,1039.7928500175476,None,1039.774658203125,1041.7914290428162,Die Zugvögel fliegen von Norden nach Süden,fliegen,1041.1747366189957,1044.0583140850067,1044.441586613655,1045.4582970142365,1056.375526547432,1057.3922231197357,1057.7922520637512,None,./data/Subject_03/Session_01/Exp_data/2020_Jul_08_1209/rec_QA_run_02_block_000_trial_007.wav,03,01,English,A2,True,False,True,False,False,True,True,True,True,True,True,True,No,2,No,No,No,No,2020_Jul_08_1209,nibs_stage_1,3.2.3,60.0243571891632,
2,0,2,0,,,,,0,0,0,0,8,0,8,0,,,,,,,,,,,,,,,,,,,,,,,,,,,,,,,,,,,,,,,,,,,,,,,,,Listen to the question and speak out your answer!,1060.8590989112854,None,1060.8257641792297,1062.859514951706,"Wenn es am Sonntag Morgen regnet, bleibt Franz den ganzen Tag im Bett.",bleibt,1062.2424765825272,None,1066.7760545015335,None,1077.4433084726334,None,1078.860044002533,None,./data/Subject_03/Session_01/Exp_data/2020_Jul_08_1209/rec_QA_run_02_block_000_trial_008.wav,03,01,English,A2,True,False,True,False,False,True,True,True,True,True,True,True,No,2,No,No,No,No,2020_Jul_08_1209,nibs_stage_1,3.2.3,60.0243571891632,
2,0,2,0,,,,,0,0,0,0,9,0,9,0,,,,,,,,,,,,,,,,,,,,,,,,,,,,,,,,,,,,,,,,,,,,,,,,,Listen to the question and speak out your answer!,1081.8940110206604,None,1081.876959681511,1083.893611907959,"Jede nennt sie Nini, aber ihr wirklicher Name ist Martina.",nennt,1083.2770394086838,1087.160455942154,1087.5104755163193,None,1098.4442955255508,None,1099.8611409664154,None,./data/Subject_03/Session_01/Exp_data/2020_Jul_08_1209/rec_QA_run_02_block_000_trial_009.wav,03,01,English,A2,True,False,True,False,False,True,True,True,True,True,True,True,No,2,No,No,No,No,2020_Jul_08_1209,nibs_stage_1,3.2.3,60.0243571891632,
2,0,2,0,,,,,0,0,0,0,10,0,10,0,,,,,,,,,,,,,,,,,,,,,,,,,,,,,,,,,,,,,,,,,,,,,,,,,Listen to the question and speak out your answer!,1102.9286210536957,None,1102.894599199295,1104.92804312706,Der Fluss fließt an der Grenze entlang.,fließt,1104.3114424943924,1106.6614561080933,1107.0448294878006,None,1119.512106537819,None,1120.9288589954376,None,./data/Subject_03/Session_01/Exp_data/2020_Jul_08_1209/rec_QA_run_02_block_000_trial_010.wav,03,01,English,A2,True,False,True,False,False,True,True,True,True,True,True,True,No,2,No,No,No,No,2020_Jul_08_1209,nibs_stage_1,3.2.3,60.0243571891632,
2,0,2,0,,,,,0,0,0,0,11,0,11,0,,,,,,,,,,,,,,,,,,,,,,,,,,,,,,,,,,,,,,,,,,,,,,,,,Listen to the question and speak out your answer!,1123.9626920223236,None,1123.9456998109818,1125.9624569416046,Für dieses Produkt wird keine technische Unterstützung mehr angeboten.,angeboten,1125.345771431923,1129.4963529109955,1129.8793014287949,None,1140.5299764871597,1141.5466129779816,1141.94664311409,None,./data/Subject_03/Session_01/Exp_data/2020_Jul_08_1209/rec_QA_run_02_block_000_trial_011.wav,03,01,English,A2,True,False,True,False,False,True,True,True,True,True,True,True,No,2,No,No,No,No,2020_Jul_08_1209,nibs_stage_1,3.2.3,60.0243571891632,
2,0,2,0,,,,,0,0,0,0,12,0,12,0,,,,,,,,,,,,,,,,,,,,,,,,,,,,,,,,,,,,,,,,,,,,,,,,,Listen to the question and speak out your answer!,1144.9972610473633,None,1144.9801232814789,1146.9969220161438,"Schultigung, Ich habe den falschen Knopf gedrückt.",gedrückt,1146.3801695108414,1149.2970209121704,1149.6803504228592,None,1161.5810025930405,1162.5977029800415,1162.99773812294,None,./data/Subject_03/Session_01/Exp_data/2020_Jul_08_1209/rec_QA_run_02_block_000_trial_012.wav,03,01,English,A2,True,False,True,False,False,True,True,True,True,True,True,True,No,2,No,No,No,No,2020_Jul_08_1209,nibs_stage_1,3.2.3,60.0243571891632,
2,0,2,0,,,,,0,0,0,0,13,0,13,0,,,,,,,,,,,,,,,,,,,,,,,,,,,,,,,,,,,,,,,,,,,,,,,,,Listen to the question and speak out your answer!,1166.065192937851,None,1166.0312283039093,1168.0646181106567,Wir müssen uns beeilen oder wir verpassen unseren Zug.,beeilen,1167.414622426033,1170.7646899223328,1171.181398510933,None,1182.615340590477,None,1184.0321400165558,None,./data/Subject_03/Session_01/Exp_data/2020_Jul_08_1209/rec_QA_run_02_block_000_trial_013.wav,03,01,English,A2,True,False,True,False,False,True,True,True,True,True,True,True,No,2,No,No,No,No,2020_Jul_08_1209,nibs_stage_1,3.2.3,60.0243571891632,
2,0,2,0,,,,,0,0,0,0,14,0,14,0,,,,,,,,,,,,,,,,,,,,,,,,,,,,,,,,,,,,,,,,,,,,,,,,,Listen to the question and speak out your answer!,1187.099051952362,None,1187.0657551288605,1189.099044084549,Durch ein Fernrohr kann man manchmal sogar die Venus sehen.,sehen,1188.4823564291,1191.7659831047058,1192.1492215394974,None,1203.6832684278488,None,1205.0999019145966,None,./data/Subject_03/Session_01/Exp_data/2020_Jul_08_1209/rec_QA_run_02_block_000_trial_014.wav,03,01,English,A2,True,False,True,False,False,True,True,True,True,True,True,True,No,2,No,No,No,No,2020_Jul_08_1209,nibs_stage_1,3.2.3,60.0243571891632,
2,0,2,0,,,,,0,0,0,0,15,0,15,0,,,,,,,,,,,,,,,,,,,,,,,,,,,,,,,,,,,,,,,,,,,,,,,,,Listen to the question and speak out your answer!,1208.1340289115906,None,1208.1000533103943,1210.133467912674,"Die Schüler sind begeistert, denn ihre Schule hat eine Exkursion organisiert.",organisiert,1209.5168305635452,None,1214.6173444986343,None,1224.717576622963,None,1226.134309053421,None,./data/Subject_03/Session_01/Exp_data/2020_Jul_08_1209/rec_QA_run_02_block_000_trial_015.wav,03,01,English,A2,True,False,True,False,False,True,True,True,True,True,True,True,No,2,No,No,No,No,2020_Jul_08_1209,nibs_stage_1,3.2.3,60.0243571891632,
2,0,2,0,,,,,0,0,0,0,16,0,16,0,,,,,,,,,,,,,,,,,,,,,,,,,,,,,,,,,,,,,,,,,,,,,,,,,Listen to the question and speak out your answer!,1229.1684920787811,None,1229.1344542503357,1231.1679151058197,"Es wird nicht empfohlen, die Batterie völlig zu entladen.",empfohlen,1230.5179694890976,1233.8013660907745,1234.184741616249,None,1245.718880534172,1246.7354021072388,1247.1353600025177,None,./data/Subject_03/Session_01/Exp_data/2020_Jul_08_1209/rec_QA_run_02_block_000_trial_016.wav,03,01,English,A2,True,False,True,False,False,True,True,True,True,True,True,True,No,2,No,No,No,No,2020_Jul_08_1209,nibs_stage_1,3.2.3,60.0243571891632,
2,0,2,0,,,,,0,0,0,0,17,0,17,0,,,,,,,,,,,,,,,,,,,,,,,,,,,,,,,,,,,,,,,,,,,,,,,,,Listen to the question and speak out your answer!,1250.2027869224548,None,1250.1688811779022,1252.2023310661316,"Meine Fenster sind schmutzig, ich muss sie putzen.",putzen,1251.5856314897537,None,1254.8191324472427,None,1266.7864176034927,1267.8031520843506,1268.2031729221344,None,./data/Subject_03/Session_01/Exp_data/2020_Jul_08_1209/rec_QA_run_02_block_000_trial_017.wav,03,01,English,A2,True,False,True,False,False,True,True,True,True,True,True,True,No,2,No,No,No,No,2020_Jul_08_1209,nibs_stage_1,3.2.3,60.0243571891632,
2,0,2,0,,,,,0,0,0,0,18,0,18,0,,,,,,,,,,,,,,,,,,,,,,,,,,,,,,,,,,,,,,,,,,,,,,,,,Listen to the question and speak out your answer!,1271.2372119426727,None,1271.2033143043518,1273.2367570400238,Mama hat einen Kuchen gebacken.,gebacken,1272.6200705766678,1274.6038329601288,1274.986848473549,None,1287.8208965063095,None,1289.2375259399414,None,./data/Subject_03/Session_01/Exp_data/2020_Jul_08_1209/rec_QA_run_02_block_000_trial_018.wav,03,01,English,A2,True,False,True,False,False,True,True,True,True,True,True,True,No,2,No,No,No,No,2020_Jul_08_1209,nibs_stage_1,3.2.3,60.0243571891632,
2,0,2,0,,,,,0,0,0,0,19,0,19,0,,,,,,,,,,,,,,,,,,,,,,,,,,,,,,,,,,,,,,,,,,,,,,,,,Listen to the question and speak out your answer!,1292.2717440128326,None,1292.237752199173,1294.2715220451355,Ich will nicht mein ganzes Geld für ein neues Auto ausgeben.,ausgeben,1293.6211405992508,1297.1385939121246,1297.521364569664,1298.5380599498749,1308.8219274282455,None,1310.2386820316315,None,./data/Subject_03/Session_01/Exp_data/2020_Jul_08_1209/rec_QA_run_02_block_000_trial_019.wav,03,01,English,A2,True,False,True,False,False,True,True,True,True,True,True,True,No,2,No,No,No,No,2020_Jul_08_1209,nibs_stage_1,3.2.3,60.0243571891632,
2,0,2,0,,,,,0,0,0,0,20,0,20,0,,,,,,,,,,,,,,,,,,,,,,,,,,,,,,,,,,,,,,,,,,,,,,,,,Listen to the question and speak out your answer!,1313.307177066803,None,1313.2888277769089,1315.3055860996246,Grossbritannien hat die EU verlassen.,verlassen,1314.6889315843582,1317.1392540931702,1317.5223714113235,None,1329.8896905183792,None,1331.3065490722656,None,./data/Subject_03/Session_01/Exp_data/2020_Jul_08_1209/rec_QA_run_02_block_000_trial_020.wav,03,01,English,A2,True,False,True,False,False,True,True,True,True,True,True,True,No,2,No,No,No,No,2020_Jul_08_1209,nibs_stage_1,3.2.3,60.0243571891632,
2,0,2,0,,,,,0,0,0,0,21,0,21,0,,,,,,,,,,,,,,,,,,,,,,,,,,,,,,,,,,,,,,,,,,,,,,,,,Listen to the question and speak out your answer!,1334.374834060669,None,1334.3566397428513,1336.3735871315002,Ihre Freundlichkeit gab mir ein Gefühl von Sicherheit.,gab,1335.7233256101608,None,1339.3568445444107,None,1350.9242035150528,1351.941134929657,1352.3409171104431,None,./data/Subject_03/Session_01/Exp_data/2020_Jul_08_1209/rec_QA_run_02_block_000_trial_021.wav,03,01,English,A2,True,False,True,False,False,True,True,True,True,True,True,True,No,2,No,No,No,No,2020_Jul_08_1209,nibs_stage_1,3.2.3,60.0243571891632,
2,0,2,0,,,,,0,0,0,0,22,0,22,0,,,,,,,,,,,,,,,,,,,,,,,,,,,,,,,,,,,,,,,,,,,,,,,,,Listen to the question and speak out your answer!,1355.4083240032196,None,1355.3743252754211,1357.407879114151,Der Mond umkreist die Erde in ungefähr achtundzwanzig Tagen.,umkreist,1356.7910815477371,1360.5746130943298,1360.9578765630722,None,1371.9919666051865,None,1373.408627986908,None,./data/Subject_03/Session_01/Exp_data/2020_Jul_08_1209/rec_QA_run_02_block_000_trial_022.wav,03,01,English,A2,True,False,True,False,False,True,True,True,True,True,True,True,No,2,No,No,No,No,2020_Jul_08_1209,nibs_stage_1,3.2.3,60.0243571891632,
2,0,2,0,,,,,0,0,0,0,23,0,23,0,,,,,,,,,,,,,,,,,,,,,,,,,,,,,,,,,,,,,,,,,,,,,,,,,Listen to the question and speak out your answer!,1376.4258251190186,None,1376.4087591171265,1378.4256319999695,Der moderne Mensch ist ursprünglich aus Afrika gekommen.,gekommen,1377.808841586113,None,1381.6090344190598,None,1393.0095385313034,None,1394.4263761043549,None,./data/Subject_03/Session_01/Exp_data/2020_Jul_08_1209/rec_QA_run_02_block_000_trial_023.wav,03,01,English,A2,True,False,True,False,False,True,True,True,True,True,True,True,No,2,No,No,No,No,2020_Jul_08_1209,nibs_stage_1,3.2.3,60.0243571891632,
2,0,2,0,,,,,0,0,0,0,24,0,24,0,,,,,,,,,,,,,,,,,,,,,,,,,,,,,,,,,,,,,,,,,,,,,,,,,Listen to the question and speak out your answer!,1397.4940769672394,None,1397.4765425920486,1399.493339061737,"Ein rotes Signal bedeutet, dass ich warten muss.",bedeutet,1398.8765984773636,1401.9270370006561,1402.310106396675,1403.326826095581,1414.0775314569473,1415.0941231250763,1415.494157075882,None,./data/Subject_03/Session_01/Exp_data/2020_Jul_08_1209/rec_QA_run_02_block_000_trial_024.wav,03,01,English,A2,True,False,True,False,False,True,True,True,True,True,True,True,No,2,No,No,No,No,2020_Jul_08_1209,nibs_stage_1,3.2.3,60.0243571891632,
2,0,2,0,,,,,0,0,0,0,,,,,,,,,,,,,,,,,,,,,,,,,,,,,,,,,,,,,,,,,,1419.5449120998383,None,,,,,,,,,,,,,,,,,,,,,,,,,,03,01,English,A2,True,False,True,False,False,True,True,True,True,True,True,True,No,2,No,No,No,No,2020_Jul_08_1209,nibs_stage_1,3.2.3,60.0243571891632,
2,0,2,0,,,,,1,0,1,0,0,0,0,0,,,,,,,,,,,,,,,,,,,,,,,,,,,,,,,,,,,,,,,,,,,,,,,,,Listen to the question and speak out your answer!,1434.2117409706116,None,1434.1784102916718,1436.21186709404,Während der Weihnachtszeit gibt es unter dem Weihnachtsbaum Geschenke für die Kinder.,gibt,1435.595176577568,None,1440.5620824098587,None,1450.7959414720535,None,1452.2126710414886,None,./data/Subject_03/Session_01/Exp_data/2020_Jul_08_1209/rec_QA_run_02_block_001_trial_000.wav,03,01,English,A2,True,False,True,False,False,True,True,True,True,True,True,True,No,2,No,No,No,No,2020_Jul_08_1209,nibs_stage_1,3.2.3,60.0243571891632,
2,0,2,0,,,,,1,0,1,0,1,0,1,0,,,,,,,,,,,,,,,,,,,,,,,,,,,,,,,,,,,,,,,,,,,,,,,,,Listen to the question and speak out your answer!,1455.2468569278717,None,1455.2128171920776,1457.2462770938873,Er ist durch die ganze Welt gereist.,gereist,1456.6296824216843,None,1459.0963805913925,None,1471.8303645849228,None,1473.2471060752869,None,./data/Subject_03/Session_01/Exp_data/2020_Jul_08_1209/rec_QA_run_02_block_001_trial_001.wav,03,01,English,A2,True,False,True,False,False,True,True,True,True,True,True,True,No,2,No,No,No,No,2020_Jul_08_1209,nibs_stage_1,3.2.3,60.0243571891632,
2,0,2,0,,,,,1,0,1,0,2,0,2,0,,,,,,,,,,,,,,,,,,,,,,,,,,,,,,,,,,,,,,,,,,,,,,,,,Listen to the question and speak out your answer!,1476.2813420295715,None,1476.2471821308136,1478.280709028244,"Wenn Sie mit diesem Produkt nicht zufrieden sind, können wir eine Alternative anbieten.",anbieten,1477.6641305685043,1482.5809190273285,1482.964187502861,None,1492.8647974729538,None,1494.2816591262817,None,./data/Subject_03/Session_01/Exp_data/2020_Jul_08_1209/rec_QA_run_02_block_001_trial_002.wav,03,01,English,A2,True,False,True,False,False,True,True,True,True,True,True,True,No,2,No,No,No,No,2020_Jul_08_1209,nibs_stage_1,3.2.3,60.0243571891632,
2,0,2,0,,,,,1,0,1,0,3,0,3,0,,,,,,,,,,,,,,,,,,,,,,,,,,,,,,,,,,,,,,,,,,,,,,,,,Listen to the question and speak out your answer!,1497.3157091140747,None,1497.281720161438,1499.3154110908508,Ich kann nicht mit dem Auto fahren.,fahren,1498.6984244585037,None,1501.098555445671,None,1513.8992174863815,None,1515.3158740997314,None,./data/Subject_03/Session_01/Exp_data/2020_Jul_08_1209/rec_QA_run_02_block_001_trial_003.wav,03,01,English,A2,True,False,True,False,False,True,True,True,True,True,True,True,No,2,No,No,No,No,2020_Jul_08_1209,nibs_stage_1,3.2.3,60.0243571891632,
2,0,2,0,,,,,1,0,1,0,4,0,4,0,,,,,,,,,,,,,,,,,,,,,,,,,,,,,,,,,,,,,,,,,,,,,,,,,Listen to the question and speak out your answer!,1518.3511641025543,None,1518.3331216573715,1520.3495481014252,"Ich habe den schrecklichen Verdacht, dass Hans das Geld gestohlen hat.",gestohlen,1519.7328814268112,1523.6830439567566,1524.0330764055252,None,1534.9171105623245,None,1536.3337309360504,None,./data/Subject_03/Session_01/Exp_data/2020_Jul_08_1209/rec_QA_run_02_block_001_trial_004.wav,03,01,English,A2,True,False,True,False,False,True,True,True,True,True,True,True,No,2,No,No,No,No,2020_Jul_08_1209,nibs_stage_1,3.2.3,60.0243571891632,
2,0,2,0,,,,,1,0,1,0,5,0,5,0,,,,,,,,,,,,,,,,,,,,,,,,,,,,,,,,,,,,,,,,,,,,,,,,,Listen to the question and speak out your answer!,1539.385570049286,None,1539.3672173023224,1541.3838920593262,Josi hat letzte Nacht nur wenig Schlaf gefunden.,gefunden,1540.7672995328903,None,1544.1674546003342,None,1555.968066573143,1556.9847810268402,1557.384808063507,None,./data/Subject_03/Session_01/Exp_data/2020_Jul_08_1209/rec_QA_run_02_block_001_trial_005.wav,03,01,English,A2,True,False,True,False,False,True,True,True,True,True,True,True,No,2,No,No,No,No,2020_Jul_08_1209,nibs_stage_1,3.2.3,60.0243571891632,
2,0,2,0,,,,,1,0,1,0,6,0,6,0,,,,,,,,,,,,,,,,,,,,,,,,,,,,,,,,,,,,,,,,,,,,,,,,,Listen to the question and speak out your answer!,1560.4523689746857,None,1560.418318271637,1562.4519441127777,Mein Freund schenkt mir eine Schachtel mit Schokolade.,schenkt,1561.801702618599,None,1565.2685445547104,None,1577.0025845766068,None,1578.419235944748,None,./data/Subject_03/Session_01/Exp_data/2020_Jul_08_1209/rec_QA_run_02_block_001_trial_006.wav,03,01,English,A2,True,False,True,False,False,True,True,True,True,True,True,True,No,2,No,No,No,No,2020_Jul_08_1209,nibs_stage_1,3.2.3,60.0243571891632,
2,0,2,0,,,,,1,0,1,0,7,0,7,0,,,,,,,,,,,,,,,,,,,,,,,,,,,,,,,,,,,,,,,,,,,,,,,,,Listen to the question and speak out your answer!,1581.470864057541,None,1581.4527242183685,1583.469701051712,"Hans arbeitet in einer Schule, er ist der Direktor.",arbeitet,1582.8527904748917,1586.0363199710846,1586.4197405576706,None,1598.0537594556808,1599.070300102234,1599.4703221321106,None,./data/Subject_03/Session_01/Exp_data/2020_Jul_08_1209/rec_QA_run_02_block_001_trial_007.wav,03,01,English,A2,True,False,True,False,False,True,True,True,True,True,True,True,No,2,No,No,No,No,2020_Jul_08_1209,nibs_stage_1,3.2.3,60.0243571891632,
2,0,2,0,,,,,1,0,1,0,8,0,8,0,,,,,,,,,,,,,,,,,,,,,,,,,,,,,,,,,,,,,,,,,,,,,,,,,Listen to the question and speak out your answer!,1602.5378150939941,None,1602.504067182541,1604.5373480319977,"„Ich heiße Sam“, war der erste Satz, den er in großen Buchstaben schreiben konnte.",schreiben,1603.9205535650253,None,1609.2874974012375,None,1619.121370434761,None,1620.5383560657501,None,./data/Subject_03/Session_01/Exp_data/2020_Jul_08_1209/rec_QA_run_02_block_001_trial_008.wav,03,01,English,A2,True,False,True,False,False,True,True,True,True,True,True,True,No,2,No,No,No,No,2020_Jul_08_1209,nibs_stage_1,3.2.3,60.0243571891632,
2,0,2,0,,,,,1,0,1,0,9,0,9,0,,,,,,,,,,,,,,,,,,,,,,,,,,,,,,,,,,,,,,,,,,,,,,,,,Listen to the question and speak out your answer!,1623.588926076889,None,1623.5549417734146,1625.5885519981384,Seit der Urzeit haben die Menschen an Götter geglaubt.,geglaubt,1624.9383286237717,1627.98845911026,1628.3718835115433,None,1640.139088511467,None,1641.5558290481567,None,./data/Subject_03/Session_01/Exp_data/2020_Jul_08_1209/rec_QA_run_02_block_001_trial_009.wav,03,01,English,A2,True,False,True,False,False,True,True,True,True,True,True,True,No,2,No,No,No,No,2020_Jul_08_1209,nibs_stage_1,3.2.3,60.0243571891632,
2,0,2,0,,,,,1,0,1,0,10,0,10,0,,,,,,,,,,,,,,,,,,,,,,,,,,,,,,,,,,,,,,,,,,,,,,,,,Listen to the question and speak out your answer!,1644.6232559680939,None,1644.5893173217773,1646.6227691173553,"Sie hat den Newsletter abonniert, um weitere Informationen zu erhalten.",abonniert,1646.0060526132584,None,1650.7063075304031,1651.7230229377747,1661.2068654298782,None,1662.6238751411438,None,./data/Subject_03/Session_01/Exp_data/2020_Jul_08_1209/rec_QA_run_02_block_001_trial_010.wav,03,01,English,A2,True,False,True,False,False,True,True,True,True,True,True,True,No,2,No,No,No,No,2020_Jul_08_1209,nibs_stage_1,3.2.3,60.0243571891632,
2,0,2,0,,,,,1,0,1,0,11,0,11,0,,,,,,,,,,,,,,,,,,,,,,,,,,,,,,,,,,,,,,,,,,,,,,,,,Listen to the question and speak out your answer!,1665.6570959091187,None,1665.6237683296204,1667.6571779251099,Jede Nacht muss ich den Kindern ein Märchen erzählen.,erzählen,1667.0404385328293,1670.0582599639893,1670.4406465291977,None,1682.241264462471,None,1683.6580181121826,None,./data/Subject_03/Session_01/Exp_data/2020_Jul_08_1209/rec_QA_run_02_block_001_trial_011.wav,03,01,English,A2,True,False,True,False,False,True,True,True,True,True,True,True,No,2,No,No,No,No,2020_Jul_08_1209,nibs_stage_1,3.2.3,60.0243571891632,
2,0,2,0,,,,,1,0,1,0,12,0,12,0,,,,,,,,,,,,,,,,,,,,,,,,,,,,,,,,,,,,,,,,,,,,,,,,,Listen to the question and speak out your answer!,1686.6923809051514,None,1686.6581721305847,1688.6916100978851,Das Abkommen läuft noch fünf Monate. ,läuft,1688.0749136209488,1690.59170794487,1690.9750434160233,1691.9917750358582,1703.2757745981216,None,1704.692466020584,None,./data/Subject_03/Session_01/Exp_data/2020_Jul_08_1209/rec_QA_run_02_block_001_trial_012.wav,03,01,English,A2,True,False,True,False,False,True,True,True,True,True,True,True,No,2,No,No,No,No,2020_Jul_08_1209,nibs_stage_1,3.2.3,60.0243571891632,
2,0,2,0,,,,,1,0,1,0,13,0,13,0,,,,,,,,,,,,,,,,,,,,,,,,,,,,,,,,,,,,,,,,,,,,,,,,,Listen to the question and speak out your answer!,1707.7260239124298,None,1707.6925942897797,1709.726037979126,Sie redete leise und unverständlich.,redete,1709.1093283891678,1711.7932329177856,1712.142984509468,None,1724.2935215234756,None,1725.7101969718933,None,./data/Subject_03/Session_01/Exp_data/2020_Jul_08_1209/rec_QA_run_02_block_001_trial_013.wav,03,01,English,A2,True,False,True,False,False,True,True,True,True,True,True,True,No,2,No,No,No,No,2020_Jul_08_1209,nibs_stage_1,3.2.3,60.0243571891632,
2,0,2,0,,,,,1,0,1,0,14,0,14,0,,,,,,,,,,,,,,,,,,,,,,,,,,,,,,,,,,,,,,,,,,,,,,,,,Listen to the question and speak out your answer!,1728.778512954712,None,1728.7608927488327,1730.7771019935608,"Ich habe mich bei einem Kurs angemeldet, um Deutsch zu lernen.",angemeldet,1730.1604045629501,1733.6772909164429,1734.0606225728989,None,1745.361200451851,None,1746.7779741287231,None,./data/Subject_03/Session_01/Exp_data/2020_Jul_08_1209/rec_QA_run_02_block_001_trial_014.wav,03,01,English,A2,True,False,True,False,False,True,True,True,True,True,True,True,No,2,No,No,No,No,2020_Jul_08_1209,nibs_stage_1,3.2.3,60.0243571891632,
2,0,2,0,,,,,1,0,1,0,15,0,15,0,,,,,,,,,,,,,,,,,,,,,,,,,,,,,,,,,,,,,,,,,,,,,,,,,Listen to the question and speak out your answer!,1749.8130841255188,None,1749.794785618782,1751.8119249343872,"Mein Bett ist gemütlich und warm, ich möchte nicht aufstehen.",aufstehen,1751.1614946126938,1754.6783599853516,1755.095039486885,None,1766.3622955083847,None,1767.778979063034,None,./data/Subject_03/Session_01/Exp_data/2020_Jul_08_1209/rec_QA_run_02_block_001_trial_015.wav,03,01,English,A2,True,False,True,False,False,True,True,True,True,True,True,True,No,2,No,No,No,No,2020_Jul_08_1209,nibs_stage_1,3.2.3,60.0243571891632,
2,0,2,0,,,,,1,0,1,0,16,0,16,0,,,,,,,,,,,,,,,,,,,,,,,,,,,,,,,,,,,,,,,,,,,,,,,,,Listen to the question and speak out your answer!,1770.8465240001678,None,1770.8127863407135,1772.8459601402283,Floras Eltern machen eine Kreuzfahrt mit einem riesigen Schiff auf dem Meer.,machen,1772.2292515039444,None,1777.0294984579086,None,1787.4300545454025,None,1788.8468239307404,None,./data/Subject_03/Session_01/Exp_data/2020_Jul_08_1209/rec_QA_run_02_block_001_trial_016.wav,03,01,English,A2,True,False,True,False,False,True,True,True,True,True,True,True,No,2,No,No,No,No,2020_Jul_08_1209,nibs_stage_1,3.2.3,60.0243571891632,
2,0,2,0,,,,,1,0,1,0,17,0,17,0,,,,,,,,,,,,,,,,,,,,,,,,,,,,,,,,,,,,,,,,,,,,,,,,,Listen to the question and speak out your answer!,1791.864907026291,None,1791.846969127655,1793.8637211322784,Diese Telefinnummer ist leicht zu merken.,merken,1793.2469254732132,1795.8304889202118,1796.2138384580612,None,1808.4480015039444,None,1809.864520072937,None,./data/Subject_03/Session_01/Exp_data/2020_Jul_08_1209/rec_QA_run_02_block_001_trial_017.wav,03,01,English,A2,True,False,True,False,False,True,True,True,True,True,True,True,No,2,No,No,No,No,2020_Jul_08_1209,nibs_stage_1,3.2.3,60.0243571891632,
2,0,2,0,,,,,1,0,1,0,18,0,18,0,,,,,,,,,,,,,,,,,,,,,,,,,,,,,,,,,,,,,,,,,,,,,,,,,Listen to the question and speak out your answer!,1812.9981229305267,None,1812.9646871089935,1814.9982430934906,Die Ärztin hat Andrea ein Rezept ausgestellt.,ausgestellt,1814.3481134176254,1817.398246049881,1817.814948439598,None,1829.5488876104355,1830.5656259059906,1830.9656429290771,None,./data/Subject_03/Session_01/Exp_data/2020_Jul_08_1209/rec_QA_run_02_block_001_trial_018.wav,03,01,English,A2,True,False,True,False,False,True,True,True,True,True,True,True,No,2,No,No,No,No,2020_Jul_08_1209,nibs_stage_1,3.2.3,60.0243571891632,
2,0,2,0,,,,,1,0,1,0,19,0,19,0,,,,,,,,,,,,,,,,,,,,,,,,,,,,,,,,,,,,,,,,,,,,,,,,,Listen to the question and speak out your answer!,1834.0341260433197,None,1834.0158816576004,1836.0325510501862,"Nach einem Match hat sie keine Stimme mehr,  weil sie so laut schreit.",schreit,1835.4158846139908,None,1839.649428486824,None,1850.6166435480118,None,1852.0333979129791,None,./data/Subject_03/Session_01/Exp_data/2020_Jul_08_1209/rec_QA_run_02_block_001_trial_019.wav,03,01,English,A2,True,False,True,False,False,True,True,True,True,True,True,True,No,2,No,No,No,No,2020_Jul_08_1209,nibs_stage_1,3.2.3,60.0243571891632,
2,0,2,0,,,,,1,0,1,0,20,0,20,0,,,,,,,,,,,,,,,,,,,,,,,,,,,,,,,,,,,,,,,,,,,,,,,,,Listen to the question and speak out your answer!,1855.067505121231,None,1855.0336091518402,1857.066976070404,Die Studenten müssen sich für den Kurs anmelden.,anmelden,1856.4503375291824,None,1859.6504324674606,1860.66717004776,1871.651274561882,None,1873.0677981376648,None,./data/Subject_03/Session_01/Exp_data/2020_Jul_08_1209/rec_QA_run_02_block_001_trial_020.wav,03,01,English,A2,True,False,True,False,False,True,True,True,True,True,True,True,No,2,No,No,No,No,2020_Jul_08_1209,nibs_stage_1,3.2.3,60.0243571891632,
2,0,2,0,,,,,1,0,1,0,21,0,21,0,,,,,,,,,,,,,,,,,,,,,,,,,,,,,,,,,,,,,,,,,,,,,,,,,Listen to the question and speak out your answer!,1876.101881980896,None,1876.0681402683258,1878.101401090622,"Morgen will er probieren, ob seine Theorie auch in der Praxis stimmt.",probieren,1877.4847034215927,1881.468274116516,1881.8515986204147,None,1892.6856526136398,1893.7022111415863,1894.1022260189056,None,./data/Subject_03/Session_01/Exp_data/2020_Jul_08_1209/rec_QA_run_02_block_001_trial_021.wav,03,01,English,A2,True,False,True,False,False,True,True,True,True,True,True,True,No,2,No,No,No,No,2020_Jul_08_1209,nibs_stage_1,3.2.3,60.0243571891632,
2,0,2,0,,,,,1,0,1,0,22,0,22,0,,,,,,,,,,,,,,,,,,,,,,,,,,,,,,,,,,,,,,,,,,,,,,,,,Listen to the question and speak out your answer!,1897.136423110962,None,1897.1023952960968,1899.1357460021973,"Das Fenster ist offen, aber ich werde es schließen.",schließen,1898.4858084917068,None,1901.9192994832993,None,1913.6866875886917,1914.7033030986786,1915.1033201217651,None,./data/Subject_03/Session_01/Exp_data/2020_Jul_08_1209/rec_QA_run_02_block_001_trial_022.wav,03,01,English,A2,True,False,True,False,False,True,True,True,True,True,True,True,No,2,No,No,No,No,2020_Jul_08_1209,nibs_stage_1,3.2.3,60.0243571891632,
2,0,2,0,,,,,1,0,1,0,23,0,23,0,,,,,,,,,,,,,,,,,,,,,,,,,,,,,,,,,,,,,,,,,,,,,,,,,Listen to the question and speak out your answer!,1918.1702270507812,None,1918.136795282364,1920.1702411174774,"Solange es regnet, bleiben wir hier.",bleiben,1919.5535534620285,1921.8369870185852,1922.2206155061722,None,1934.754362463951,None,1936.1713659763336,None,./data/Subject_03/Session_01/Exp_data/2020_Jul_08_1209/rec_QA_run_02_block_001_trial_023.wav,03,01,English,A2,True,False,True,False,False,True,True,True,True,True,True,True,No,2,No,No,No,No,2020_Jul_08_1209,nibs_stage_1,3.2.3,60.0243571891632,
2,0,2,0,,,,,1,0,1,0,24,0,24,0,,,,,,,,,,,,,,,,,,,,,,,,,,,,,,,,,,,,,,,,,,,,,,,,,Listen to the question and speak out your answer!,1939.2052330970764,None,1939.1712312698364,1941.204673051834,Die Tulpen stammen eigentlich aus Persien und der Türkei.,stammen,1940.5879765748978,1944.1048259735107,1944.4881604909897,1945.5048849582672,1955.7887915372849,None,1957.205500125885,None,./data/Subject_03/Session_01/Exp_data/2020_Jul_08_1209/rec_QA_run_02_block_001_trial_024.wav,03,01,English,A2,True,False,True,False,False,True,True,True,True,True,True,True,No,2,No,No,No,No,2020_Jul_08_1209,nibs_stage_1,3.2.3,60.0243571891632,
