artifact_trial.thisRepN,artifact_trial.thisTrialN,artifact_trial.thisN,artifact_trial.thisIndex,pre_trial.thisRepN,pre_trial.thisTrialN,pre_trial.thisN,pre_trial.thisIndex,instruction_text.text,instruction_text.started,instruction_text.stopped,instruction_cont.started,instruction_cont.stopped,Artifact_intro_title.started,Artifact_intro_title.stopped,Artifact_intro_text.text,Artifact_intro_text.started,Artifact_intro_text.stopped,Artifact_intro_audio.started,Artifact_intro_audio.stopped,Artifact_intro_cont.started,Artifact_intro_cont.stopped,Artifact_rec_text.text,Artifact_rec_text.started,Artifact_rec_text.stopped,Artifact_rec_beep_hint.started,Artifact_rec_beep_hint.stopped,Artifact_rec_action.started,Artifact_rec_action.stopped,Artifact_rec_beep_start.started,Artifact_rec_beep_start.stopped,Artifact_rec_recording.started,Artifact_rec_recording.stopped,Artifact_rec_beep_end.started,Artifact_rec_beep_end.stopped,Artifact_rec_break.started,Artifact_rec_break.stopped,Cali_de_pre_intro_title.started,Cali_de_pre_intro_title.stopped,Cali_de_pre_intro_text.text,Cali_de_pre_intro_text.started,Cali_de_pre_intro_text.stopped,Cali_de_pre_intro_audio.started,Cali_de_pre_intro_audio.stopped,Cali_de_pre_intro_cont.started,Cali_de_pre_intro_cont.stopped,Cali_de_pre_rec_text.text,Cali_de_pre_rec_text.started,Cali_de_pre_rec_text.stopped,Cali_de_pre_rec_beep_hint.started,Cali_de_pre_rec_beep_hint.stopped,Cali_de_pre_rec_question_text.text,Cali_de_pre_rec_question_text.started,Cali_de_pre_rec_question_text.stopped,Cali_de_pre_rec_beep_start.started,Cali_de_pre_rec_beep_start.stopped,Cali_de_pre_rec_beep_end.started,Cali_de_pre_rec_beep_end.stopped,Cali_de_pre_rec_break.started,Cali_de_pre_rec_break.stopped,filename,participant,session,First language,German level,Full_screen,Instruction,Intro,Artifact,Cali_pre,Fade_in_out,Artifact_within,Resting_State,QA,Pause,Cali_post,End,Breakpoint_Cali_pre_trial,Breakpoint_Run,Breakpoint_RS_block,Breakpoint_QA_block,Breakpoint_QA_trial,Breakpoint_Cali_post_trial,date,expName,psychopyVersion,frameRate,
0,0,0,0,,,,,"     Thank you for participating in the experiment: 

     Personalized non-invasive brain stimulation    
            for second language learning            
",16.673357009887695,None,31.64062809944153,None,37.94103503227234,None,"  - Task: Artifacts collection   
  - Please follow audio instruction              
",37.94103503227234,None,37.926547574996945,None,64.30926394462585,None,,66.34247708320618,None,66.32991557121277,68.34282803535461,67.72602062225342,None,71.12653951644897,None,72.52635173797607,82.52689695358276,82.92705254554748,None,84.32691693305969,85.32695603370667,,,,,,,,,,,,,,,,,,,,,,,,,05,02,Norwegian,A2,True,True,True,True,True,True,True,True,True,True,True,True,No,No,No,No,No,No,2020_Aug_17_1044,nibs_stage_1,3.2.3,60.037674703555055,
1,0,1,0,,,,,,,,,,,,,,,,,,,,88.34408807754517,None,88.34753470420837,90.36021900177002,89.72697954177856,None,93.12713556289673,94.12715196609497,94.52721767425537,104.52769303321838,104.92774562835693,None,106.32778406143188,107.32783794403076,,,,,,,,,,,,,,,,,,,,,,,,,05,02,Norwegian,A2,True,True,True,True,True,True,True,True,True,True,True,True,No,No,No,No,No,No,2020_Aug_17_1044,nibs_stage_1,3.2.3,60.037674703555055,
2,0,2,0,,,,,,,,,,,,,,,,,,,,110.36140012741089,110.36140012741089,110.34845976829529,112.3614330291748,111.74478368759155,None,115.14493565559387,116.14485311508179,116.54498271942138,126.54547905921936,126.94553356170654,None,128.3455240726471,129.34568095207214,,,,,,,,,,,,,,,,,,,,,,,,,05,02,Norwegian,A2,True,True,True,True,True,True,True,True,True,True,True,True,No,No,No,No,No,No,2020_Aug_17_1044,nibs_stage_1,3.2.3,60.037674703555055,
3,0,3,0,,,,,,,,,,,,,,,,,,,,132.36299300193787,None,132.36632471084596,134.37926602363586,133.74584751129152,None,137.14604454040528,138.14604306221008,138.54609351158143,148.5465829372406,148.94662170410157,149.94664597511292,150.34666991233826,151.34662795066833,,,,,,,,,,,,,,,,,,,,,,,,,05,02,Norwegian,A2,True,True,True,True,True,True,True,True,True,True,True,True,No,No,No,No,No,No,2020_Aug_17_1044,nibs_stage_1,3.2.3,60.037674703555055,
4,0,4,0,,,,,,,,,,,,,,,,,,,,154.38021111488342,154.38021111488342,154.3674307346344,156.38030910491943,155.76358370780946,None,159.16393761634828,160.16385698318481,160.56393055915834,170.56440210342407,170.9643626689911,None,172.36477303504944,173.3646650314331,,,,,,,,,,,,,,,,,,,,,,,,,05,02,Norwegian,A2,True,True,True,True,True,True,True,True,True,True,True,True,No,No,No,No,No,No,2020_Aug_17_1044,nibs_stage_1,3.2.3,60.037674703555055,
5,0,5,0,,,,,,,,,,,,,,,,,,,,176.3982470035553,None,176.38543753623964,178.3983669281006,177.7652225971222,None,181.16522269248964,None,182.56521062850953,192.5659339427948,192.9660385131836,None,194.36582493782043,195.3659040927887,,,,,,,,,,,,,,,,,,,,,,,,,05,02,Norwegian,A2,True,True,True,True,True,True,True,True,True,True,True,True,No,No,No,No,No,No,2020_Aug_17_1044,nibs_stage_1,3.2.3,60.037674703555055,
6,0,6,0,,,,,,,,,,,,,,,,,,,,198.39989709854126,None,198.40328054428102,200.41613602638245,199.7830267429352,None,203.1829836845398,None,204.5832477092743,214.58357691764832,214.98383860588075,215.9838080406189,216.38369798660278,217.38368201255798,,,,,,,,,,,,,,,,,,,,,,,,,05,02,Norwegian,A2,True,True,True,True,True,True,True,True,True,True,True,True,No,No,No,No,No,No,2020_Aug_17_1044,nibs_stage_1,3.2.3,60.037674703555055,
7,0,7,0,,,,,,,,,,,,,,,,,,,,220.41715693473816,220.41715693473816,220.40430264472963,222.41734504699707,221.8006606578827,224.80073404312134,225.20078973770143,226.20104098320007,226.60090665817262,236.6013469696045,237.00139956474305,238.00142812728882,238.40144801139832,239.40175604820251,,,,,,,,,,,,,,,,,,,,,,,,,05,02,Norwegian,A2,True,True,True,True,True,True,True,True,True,True,True,True,No,No,No,No,No,No,2020_Aug_17_1044,nibs_stage_1,3.2.3,60.037674703555055,
8,0,8,0,,,,,,,,,,,,,,,,,,,,242.41877698898315,None,242.42219572067262,244.4351019859314,243.8019476413727,246.80212903022766,247.20215373039247,None,248.60203557014466,258.6025359630585,259.00245957374574,260.0026009082794,260.4025959968567,261.4029150009155,,,,,,,,,,,,,,,,,,,,,,,,,05,02,Norwegian,A2,True,True,True,True,True,True,True,True,True,True,True,True,No,No,No,No,No,No,2020_Aug_17_1044,nibs_stage_1,3.2.3,60.037674703555055,
9,0,9,0,,,,,,,,,,,,,,,,,,,,264.4369580745697,264.4369580745697,264.42332463264466,266.43624901771545,265.81970672607423,268.8197491168976,269.2197816848755,None,270.61984066963197,280.6202280521393,281.0203266620636,282.0203959941864,282.42041206359863,283.42069602012634,,,,,,,,,,,,,,,,,,,,,,,,,05,02,Norwegian,A2,True,True,True,True,True,True,True,True,True,True,True,True,No,No,No,No,No,No,2020_Aug_17_1044,nibs_stage_1,3.2.3,60.037674703555055,
10,0,10,0,,,,,,,,,,,,,,,,,,,,286.45396399497986,None,286.4410896778107,288.4540801048279,287.82076172828675,None,291.2209005832672,None,292.6212597370148,302.6214780807495,303.0215156555176,None,304.4216339588165,305.4218239784241,,,,,,,,,,,,,,,,,,,,,,,,,05,02,Norwegian,A2,True,True,True,True,True,True,True,True,True,True,True,True,No,No,No,No,No,No,2020_Aug_17_1044,nibs_stage_1,3.2.3,60.037674703555055,
11,0,11,0,,,,,,,,,,,,,,,,,,,,308.48814702033997,None,308.4757033348084,310.4887340068817,309.8716645717621,None,313.2887115955353,314.28901410102844,314.67211871147157,324.6726219654083,325.0726676464081,326.0726070404053,326.4726309776306,327.47279500961304,,,,,,,,,,,,,,,,,,,,,,,,,05,02,Norwegian,A2,True,True,True,True,True,True,True,True,True,True,True,True,No,No,No,No,No,No,2020_Aug_17_1044,nibs_stage_1,3.2.3,60.037674703555055,
12,0,12,0,,,,,,,,,,,,,,,,,,,,330.5062680244446,None,330.49351172447206,332.50648307800293,331.8730345249176,334.8731679916382,335.27320461273194,336.27325892448425,336.6733186721802,346.6737971305847,347.0738497257233,348.07386803627014,348.4740979671478,349.4738681316376,,,,,,,,,,,,,,,,,,,,,,,,,05,02,Norwegian,A2,True,True,True,True,True,True,True,True,True,True,True,True,No,No,No,No,No,No,2020_Aug_17_1044,nibs_stage_1,3.2.3,60.037674703555055,
13,0,13,0,,,,,,,,,,,,,,,,,,,,352.54061102867126,None,352.5113525867462,354.52435302734375,353.90755467414857,None,357.30774455070497,None,358.7078176021576,368.7083010673523,369.10825567245485,None,370.50880002975464,371.5083439350128,,,,,,,,,,,,,,,,,,,,,,,,,05,02,Norwegian,A2,True,True,True,True,True,True,True,True,True,True,True,True,No,No,No,No,No,No,2020_Aug_17_1044,nibs_stage_1,3.2.3,60.037674703555055,
14,0,14,0,,,,,,,,,,,,,,,,,,,,374.5586619377136,None,374.52892112731934,376.5584900379181,375.94180755615236,None,379.34200768470765,None,380.74211673736573,390.75924491882324,391.14276366233827,None,392.5593490600586,393.5927309989929,,,,,,,,,,,,,,,,,,,,,,,,,05,02,Norwegian,A2,True,True,True,True,True,True,True,True,True,True,True,True,No,No,No,No,No,No,2020_Aug_17_1044,nibs_stage_1,3.2.3,60.037674703555055,
,,,,0,0,0,0,,,,,,,,,,,,,,,,,,,,,,,,,,,,,,397.6096920967102,None,"  - Task: Read out the displayed German sentence   
  - Melodious beep sound: Trial start              
  - Beep sound with increasing pitch: Rec. start   
  - Beep sound with decreasing pitch: Rec. finish  
",397.6096920967102,None,397.58207874298097,None,426.9945149421692,None,,429.54460406303406,None,429.5319247722626,431.57809495925903,Können Sie mir auf Hundert Euro herausgeben?,430.94480895996094,448.5791370868683,432.3282566547394,None,445.12883763313295,None,446.54555106163025,448.5791370868683,./data/Subject_05/Session_02/Exp_data/2020_Aug_17_1044/rec_cali_de_pre_trial_000.wav,05,02,Norwegian,A2,True,True,True,True,True,True,True,True,True,True,True,True,No,No,No,No,No,No,2020_Aug_17_1044,nibs_stage_1,3.2.3,60.037674703555055,
,,,,1,0,1,0,,,,,,,,,,,,,,,,,,,,,,,,,,,,,,,,,,,,,,,,451.57946491241455,None,451.56637053489686,453.6125330924988,Leni bewegt beim Lesen die Lippen.,452.97924399375916,470.6135370731354,454.3626795291901,None,467.1633306026459,None,468.5800631046295,470.6135370731354,./data/Subject_05/Session_02/Exp_data/2020_Aug_17_1044/rec_cali_de_pre_trial_001.wav,05,02,Norwegian,A2,True,True,True,True,True,True,True,True,True,True,True,True,No,No,No,No,No,No,2020_Aug_17_1044,nibs_stage_1,3.2.3,60.037674703555055,
,,,,2,0,2,0,,,,,,,,,,,,,,,,,,,,,,,,,,,,,,,,,,,,,,,,473.6146309375763,None,473.6009057044983,475.64713406562805,Der Gipfel von Everset ist der höchste der Welt.,475.01380610466003,492.6313829421997,476.3972037315369,None,489.2145746231079,None,490.59797501564026,492.6313829421997,./data/Subject_05/Session_02/Exp_data/2020_Aug_17_1044/rec_cali_de_pre_trial_002.wav,05,02,Norwegian,A2,True,True,True,True,True,True,True,True,True,True,True,True,No,No,No,No,No,No,2020_Aug_17_1044,nibs_stage_1,3.2.3,60.037674703555055,
,,,,3,0,3,0,,,,,,,,,,,,,,,,,,,,,,,,,,,,,,,,,,,,,,,,495.63225197792053,None,495.61877660751344,497.6649839878082,Großbritanien tritt aus der EU aus.,497.0316319465637,514.6659729480743,498.4150677204132,None,511.215682554245,None,512.6324660778046,514.6659729480743,./data/Subject_05/Session_02/Exp_data/2020_Aug_17_1044/rec_cali_de_pre_trial_003.wav,05,02,Norwegian,A2,True,True,True,True,True,True,True,True,True,True,True,True,No,No,No,No,No,No,2020_Aug_17_1044,nibs_stage_1,3.2.3,60.037674703555055,
,,,,4,0,4,0,,,,,,,,,,,,,,,,,,,,,,,,,,,,,,,,,,,,,,,,517.6669039726257,None,517.6532767295837,519.6996920108795,"Ein Bauer hält auf seinem Tiere wie Kühe, Hühner oder Schweine.",519.0661430358887,536.700453042984,520.4495995521545,None,533.2503045082092,None,534.6669909954071,536.700453042984,./data/Subject_05/Session_02/Exp_data/2020_Aug_17_1044/rec_cali_de_pre_trial_004.wav,05,02,Norwegian,A2,True,True,True,True,True,True,True,True,True,True,True,True,No,No,No,No,No,No,2020_Aug_17_1044,nibs_stage_1,3.2.3,60.037674703555055,
,,,,5,0,5,0,,,,,,,,,,,,,,,,,,,,,,,,,,,,,,,,,,,,,,,,539.7009451389313,None,539.6879215717315,541.7340281009674,Die Ärztin hat Andrea ein Rezept ausgestellt.,541.100781917572,558.734964132309,542.4842546463012,543.5007901191711,555.2848215579986,None,556.7015790939331,558.734964132309,./data/Subject_05/Session_02/Exp_data/2020_Aug_17_1044/rec_cali_de_pre_trial_005.wav,05,02,Norwegian,A2,True,True,True,True,True,True,True,True,True,True,True,True,No,No,No,No,No,No,2020_Aug_17_1044,nibs_stage_1,3.2.3,60.037674703555055,
,,,,6,0,6,0,,,,,,,,,,,,,,,,,,,,,,,,,,,,,,,,,,,,,,,,561.7356550693512,None,561.7223465919494,563.7684841156006,Im Frühling besuchen viele Touristen unserer Hauptstadt.,563.1351981163025,580.7695419788361,564.5186555862426,None,577.3193526744842,None,578.7360479831696,580.7695419788361,./data/Subject_05/Session_02/Exp_data/2020_Aug_17_1044/rec_cali_de_pre_trial_006.wav,05,02,Norwegian,A2,True,True,True,True,True,True,True,True,True,True,True,True,No,No,No,No,No,No,2020_Aug_17_1044,nibs_stage_1,3.2.3,60.037674703555055,
,,,,7,0,7,0,,,,,,,,,,,,,,,,,,,,,,,,,,,,,,,,,,,,,,,,583.7863199710846,None,583.7568786621093,585.7864320278168,Durch die Klimaveränderung steigen die Temperaturen auf der Erde.,585.1864049434662,602.8206911087036,586.5698326110839,587.5865240097046,599.370523738861,None,600.7872591018677,602.8206911087036,./data/Subject_05/Session_02/Exp_data/2020_Aug_17_1044/rec_cali_de_pre_trial_007.wav,05,02,Norwegian,A2,True,True,True,True,True,True,True,True,True,True,True,True,No,No,No,No,No,No,2020_Aug_17_1044,nibs_stage_1,3.2.3,60.037674703555055,
,,,,8,0,8,0,,,,,,,,,,,,,,,,,,,,,,,,,,,,,,,,,,,,,,,,605.7881009578705,None,605.7748666286468,607.8209750652313,Jede Münze hat zwei Seiten.,607.1877081394196,624.8219299316406,608.5711715698242,None,621.3716986656189,None,622.7884590625763,624.8219299316406,./data/Subject_05/Session_02/Exp_data/2020_Aug_17_1044/rec_cali_de_pre_trial_008.wav,05,02,Norwegian,A2,True,True,True,True,True,True,True,True,True,True,True,True,No,No,No,No,No,No,2020_Aug_17_1044,nibs_stage_1,3.2.3,60.037674703555055,
,,,,9,0,9,0,,,,,,,,,,,,,,,,,,,,,,,,,,,,,,,,,,,,,,,,627.8222069740295,None,627.809283542633,629.8554990291595,Ist der Tisch schon gedeckt?,629.2221291065216,646.8564190864563,630.605570602417,None,643.4064326763153,644.4229719638824,644.8229880332947,646.8564190864563,./data/Subject_05/Session_02/Exp_data/2020_Aug_17_1044/rec_cali_de_pre_trial_009.wav,05,02,Norwegian,A2,True,True,True,True,True,True,True,True,True,True,True,True,No,No,No,No,No,No,2020_Aug_17_1044,nibs_stage_1,3.2.3,60.037674703555055,
