run.thisRepN,run.thisTrialN,run.thisN,run.thisIndex,artifact_trial.thisRepN,artifact_trial.thisTrialN,artifact_trial.thisN,artifact_trial.thisIndex,QA_block.thisRepN,QA_block.thisTrialN,QA_block.thisN,QA_block.thisIndex,QA_trial.thisRepN,QA_trial.thisTrialN,QA_trial.thisN,QA_trial.thisIndex,fade_in_text.text,fade_in_text.started,fade_in_text.stopped,Artifact_intro_title.started,Artifact_intro_title.stopped,Artifact_intro_text.text,Artifact_intro_text.started,Artifact_intro_text.stopped,Artifact_intro_audio.started,Artifact_intro_audio.stopped,Artifact_intro_cont.started,Artifact_intro_cont.stopped,Artifact_rec_text.text,Artifact_rec_text.started,Artifact_rec_text.stopped,Artifact_rec_beep_hint.started,Artifact_rec_beep_hint.stopped,Artifact_rec_action.started,Artifact_rec_action.stopped,Artifact_rec_beep_start.started,Artifact_rec_beep_start.stopped,Artifact_rec_recording.started,Artifact_rec_recording.stopped,Artifact_rec_beep_end.started,Artifact_rec_beep_end.stopped,Artifact_rec_break.started,Artifact_rec_break.stopped,RS_intro_title.started,RS_intro_title.stopped,RS_intro_text.text,RS_intro_text.started,RS_intro_text.stopped,RS_intro_audio.started,RS_intro_audio.stopped,RS_rec_text.text,RS_rec_text.started,RS_rec_text.stopped,Pause_cont.started,Pause_cont.stopped,QA_intro_title.started,QA_intro_title.stopped,QA_intro_text.text,QA_intro_text.started,QA_intro_text.stopped,QA_intro_audio.started,QA_intro_audio.stopped,QA_intro_cont.started,QA_intro_cont.stopped,QA_rec_text.text,QA_rec_text.started,QA_rec_text.stopped,QA_rec_beep_hint.started,QA_rec_beep_hint.stopped,QA_rec_question.sen_text,QA_rec_question.cen_text,QA_rec_question.started,QA_rec_question.stopped,QA_rec_beep_start.started,QA_rec_beep_start.stopped,QA_rec_beep_end.started,QA_rec_beep_end.stopped,QA_rec_break.started,QA_rec_break.stopped,filename,fade_out_text.text,fade_out_text.started,fade_out_text.stopped,participant,session,First language,German level,Full_screen,Instruction,Intro,Artifact,Cali_pre,Fade_in_out,Artifact_within,Resting_State,QA,Pause,Cali_post,End,Breakpoint_Cali_pre_trial,Breakpoint_Run,Breakpoint_RS_block,Breakpoint_QA_block,Breakpoint_QA_trial,Breakpoint_Cali_post_trial,date,expName,psychopyVersion,frameRate,
2,0,2,0,0,0,0,0,,,,,,,,,Please remain seated until further instruction via the earphone.,53.837180852890015,None,55.87036991119385,None,"  - Task: Artifacts collection   
  - Please follow audio instruction              
",55.87036991119385,None,55.85141942501068,None,82.23843002319336,None,,84.27187395095825,None,84.25266859531402,86.25531792640686,85.65520045757293,None,89.05535457134246,None,90.45552060604095,100.45608282089233,100.85599062442779,None,102.25617504119873,103.25623297691345,,,,,,,,,,,,,,,,,,,,,,,,,,,,,,,,,,,,,,,,,05,02,Norwegian,A2,True,False,True,False,False,True,True,True,True,True,True,True,No,2,No,No,No,No,2020_Aug_17_1218,nibs_stage_1,3.2.3,60.00022888270905,
2,0,2,0,1,0,1,0,,,,,,,,,,,,,,,,,,,,,,106.28977799415588,None,106.27043054103851,108.27307295799255,107.65642545223236,None,111.05660746097564,None,112.45678446292877,122.45725202560425,122.85722348690032,None,124.25735187530518,125.25736093521118,,,,,,,,,,,,,,,,,,,,,,,,,,,,,,,,,,,,,,,,,05,02,Norwegian,A2,True,False,True,False,False,True,True,True,True,True,True,True,No,2,No,No,No,No,2020_Aug_17_1218,nibs_stage_1,3.2.3,60.00022888270905,
2,0,2,0,2,0,2,0,,,,,,,,,,,,,,,,,,,,,,128.30757784843445,None,128.28870151042938,130.29093384742737,129.67415044307708,None,133.07434961795806,None,134.47449157238006,144.47505593299866,144.87505242824554,145.87513184547424,146.27528500556946,147.2751829624176,,,,,,,,,,,,,,,,,,,,,,,,,,,,,,,,,,,,,,,,,05,02,Norwegian,A2,True,False,True,False,False,True,True,True,True,True,True,True,No,2,No,No,No,No,2020_Aug_17_1218,nibs_stage_1,3.2.3,60.00022888270905,
2,0,2,0,3,0,3,0,,,,,,,,,,,,,,,,,,,,,,150.32547402381897,None,150.30616543293,152.30880403518677,151.69205543994903,None,155.09223554134368,None,156.49231050014495,166.49288296699524,166.89286849498748,167.89296698570251,168.29297590255737,169.29295682907104,,,,,,,,,,,,,,,,,,,,,,,,,,,,,,,,,,,,,,,,,05,02,Norwegian,A2,True,False,True,False,False,True,True,True,True,True,True,True,No,2,No,No,No,No,2020_Aug_17_1218,nibs_stage_1,3.2.3,60.00022888270905,
2,0,2,0,4,0,4,0,,,,,,,,,,,,,,,,,,,,,,172.34326791763306,None,172.32398340702056,174.3266999721527,173.71010563373565,None,177.1102754831314,None,178.51017854213714,188.51097202301025,188.9276115655899,None,190.32754802703857,191.3277130126953,,,,,,,,,,,,,,,,,,,,,,,,,,,,,,,,,,,,,,,,,05,02,Norwegian,A2,True,False,True,False,False,True,True,True,True,True,True,True,No,2,No,No,No,No,2020_Aug_17_1218,nibs_stage_1,3.2.3,60.00022888270905,
2,0,2,0,5,0,5,0,,,,,,,,,,,,,,,,,,,,,,194.3612699508667,None,194.34200451374053,196.3611090183258,195.7443976163864,None,199.14454243183135,200.16130781173706,200.5447375535965,210.56190586090088,210.94514462947845,211.96188187599182,212.36191582679749,213.39520597457886,,,,,,,,,,,,,,,,,,,,,,,,,,,,,,,,,,,,,,,,,05,02,Norwegian,A2,True,False,True,False,False,True,True,True,True,True,True,True,No,2,No,No,No,No,2020_Aug_17_1218,nibs_stage_1,3.2.3,60.00022888270905,
2,0,2,0,6,0,6,0,,,,,,,,,,,,,,,,,,,,,,216.39600086212158,None,216.3763854265213,218.3955500125885,217.7787985563278,None,221.17901561260223,222.19574093818665,222.5790586233139,232.59625387191772,232.97959444522857,None,234.39642190933228,235.42985796928406,,,,,,,,,,,,,,,,,,,,,,,,,,,,,,,,,,,,,,,,,05,02,Norwegian,A2,True,False,True,False,False,True,True,True,True,True,True,True,No,2,No,No,No,No,2020_Aug_17_1218,nibs_stage_1,3.2.3,60.00022888270905,
2,0,2,0,7,0,7,0,,,,,,,,,,,,,,,,,,,,,,238.43005394935608,None,238.4106735944748,240.42996191978455,239.81327555179595,242.83011198043823,243.21344563961028,None,244.6135325193405,254.63071584701538,255.01404354572296,None,256.4307839870453,257.4642038345337,,,,,,,,,,,,,,,,,,,,,,,,,,,,,,,,,,,,,,,,,05,02,Norwegian,A2,True,False,True,False,False,True,True,True,True,True,True,True,No,2,No,No,No,No,2020_Aug_17_1218,nibs_stage_1,3.2.3,60.00022888270905,
2,0,2,0,8,0,8,0,,,,,,,,,,,,,,,,,,,,,,260.46515798568726,None,260.44515845775607,262.46444392204285,261.8477484941483,264.86457896232605,265.24788949489596,None,266.6479556322098,276.66517090797424,277.04849860668185,278.0653610229492,278.4652588367462,279.498605966568,,,,,,,,,,,,,,,,,,,,,,,,,,,,,,,,,,,,,,,,,05,02,Norwegian,A2,True,False,True,False,False,True,True,True,True,True,True,True,No,2,No,No,No,No,2020_Aug_17_1218,nibs_stage_1,3.2.3,60.00022888270905,
2,0,2,0,9,0,9,0,,,,,,,,,,,,,,,,,,,,,,282.4997639656067,None,282.4796163797379,284.49889183044434,283.88215944767,286.89901304244995,287.28233263492587,None,288.68251345157626,298.6996338367462,299.08294055461886,None,300.4997079372406,301.5330948829651,,,,,,,,,,,,,,,,,,,,,,,,,,,,,,,,,,,,,,,,,05,02,Norwegian,A2,True,False,True,False,False,True,True,True,True,True,True,True,No,2,No,No,No,No,2020_Aug_17_1218,nibs_stage_1,3.2.3,60.00022888270905,
2,0,2,0,10,0,10,0,,,,,,,,,,,,,,,,,,,,,,304.53377294540405,None,304.5140375852585,306.5333390235901,305.9166345357895,None,309.316791510582,310.3335349559784,310.7170095205307,320.73407101631165,321.11731646060946,None,322.5341639518738,323.5675618648529,,,,,,,,,,,,,,,,,,,,,,,,,,,,,,,,,,,,,,,,,05,02,Norwegian,A2,True,False,True,False,False,True,True,True,True,True,True,True,No,2,No,No,No,No,2020_Aug_17_1218,nibs_stage_1,3.2.3,60.00022888270905,
2,0,2,0,11,0,11,0,,,,,,,,,,,,,,,,,,,,,,326.5686888694763,None,326.5485095739365,328.56780886650085,327.95124742984774,None,331.3513474225998,332.3680229187012,332.75133059024813,342.7686049938202,343.1518664121628,None,344.56862783432007,345.60201597213745,,,,,,,,,,,,,,,,,,,,,,,,,,,,,,,,,,,,,,,,,05,02,Norwegian,A2,True,False,True,False,False,True,True,True,True,True,True,True,No,2,No,No,No,No,2020_Aug_17_1218,nibs_stage_1,3.2.3,60.00022888270905,
2,0,2,0,12,0,12,0,,,,,,,,,,,,,,,,,,,,,,348.602411031723,None,348.5830025434494,350.60227394104004,349.9855155706406,353.0023720264435,353.3858315706253,None,354.78577945232394,364.8029489517212,365.18630359172823,366.2030928134918,366.6030628681183,367.636353969574,,,,,,,,,,,,,,,,,,,,,,,,,,,,,,,,,,,,,,,,,05,02,Norwegian,A2,True,False,True,False,False,True,True,True,True,True,True,True,No,2,No,No,No,No,2020_Aug_17_1218,nibs_stage_1,3.2.3,60.00022888270905,
2,0,2,0,13,0,13,0,,,,,,,,,,,,,,,,,,,,,,370.6368598937988,None,370.61753556728365,372.6367139816284,372.0200044870377,None,375.4201714754105,None,376.8202504873276,386.83736395835876,387.2207815408707,388.2375388145447,388.6375458240509,389.67092204093933,,,,,,,,,,,,,,,,,,,,,,,,,,,,,,,,,,,,,,,,,05,02,Norwegian,A2,True,False,True,False,False,True,True,True,True,True,True,True,No,2,No,No,No,No,2020_Aug_17_1218,nibs_stage_1,3.2.3,60.00022888270905,
2,0,2,0,14,0,14,0,,,,,,,,,,,,,,,,,,,,,,392.6717929840088,None,392.6518835783005,394.6712028980255,394.0547954797745,None,397.45463654994967,398.47139501571655,398.8547105550766,408.8719518184662,409.2553274393082,410.27206087112427,410.67207884788513,411.70547795295715,,,,,,,,,,,,,,,,,,,,,,,,,,,,,,,,,,,,,,,,,05,02,Norwegian,A2,True,False,True,False,False,True,True,True,True,True,True,True,No,2,No,No,No,No,2020_Aug_17_1218,nibs_stage_1,3.2.3,60.00022888270905,
2,0,2,0,,,,,0,0,0,0,0,0,0,0,,,,,,,,,,,,,,,,,,,,,,,,,,,,622.2161920070648,None," - Task: Keep seated and relaxed with either      
             opening or closing eyes                  
 - Beep sound with decreasing pitch: Block finish 
",622.2161920070648,None,622.1803111553193,None,"Please keep relaxed and close your eyes.
",645.2677578926086,825.310035943985,828.7103199958801,None,843.4781839847565,None," - Task: Listen to the question& Speak out answer 
 - Melodious beep sound: Trial start              
 - Silent sound (blank): censored word            
 - Beep sound with increasing pitch: Rec. start   
 - Beep sound with decreasing pitch: Rec. finish  
",843.4781839847565,None,843.4571964502335,None,882.8963549137115,None,Listen to the question and speak out your answer!,885.9807469844818,None,885.9593292713165,887.9799489974976,"In der Schule lernen die Kinder lesen, schreiben und rechnen.",lernen,887.363244509697,None,891.496777510643,892.5135228633881,902.5640265703202,None,903.9807870388031,None,./data/Subject_05/Session_02/Exp_data/2020_Aug_17_1218/rec_QA_run_02_block_000_trial_000.wav,,,,05,02,Norwegian,A2,True,False,True,False,False,True,True,True,True,True,True,True,No,2,No,No,No,No,2020_Aug_17_1218,nibs_stage_1,3.2.3,60.00022888270905,
2,0,2,0,,,,,0,0,0,0,1,0,1,0,,,,,,,,,,,,,,,,,,,,,,,,,,,,,,,,,,,,,,,,,,,,,,,,,Listen to the question and speak out your answer!,907.0484838485718,None,907.0285217046738,909.0477290153503,"Die Regierung plant, mehr Arbeitsplätze für junge Menschen zu schaffen.",schaffen,908.4309854269028,None,912.897891497612,None,923.6317794084549,None,925.0485270023346,None,./data/Subject_05/Session_02/Exp_data/2020_Aug_17_1218/rec_QA_run_02_block_000_trial_001.wav,,,,05,02,Norwegian,A2,True,False,True,False,False,True,True,True,True,True,True,True,No,2,No,No,No,No,2020_Aug_17_1218,nibs_stage_1,3.2.3,60.00022888270905,
2,0,2,0,,,,,0,0,0,0,2,0,2,0,,,,,,,,,,,,,,,,,,,,,,,,,,,,,,,,,,,,,,,,,,,,,,,,,Listen to the question and speak out your answer!,928.1158349514008,None,928.0961176633836,930.1154568195343,Das Lagerfeuer hat zwei Stunden lang gebrannt.,gebrannt,929.4654264211655,None,932.632278418541,None,944.682874417305,945.6996250152588,946.0996468067169,None,./data/Subject_05/Session_02/Exp_data/2020_Aug_17_1218/rec_QA_run_02_block_000_trial_002.wav,,,,05,02,Norwegian,A2,True,False,True,False,False,True,True,True,True,True,True,True,No,2,No,No,No,No,2020_Aug_17_1218,nibs_stage_1,3.2.3,60.00022888270905,
2,0,2,0,,,,,0,0,0,0,3,0,3,0,,,,,,,,,,,,,,,,,,,,,,,,,,,,,,,,,,,,,,,,,,,,,,,,,Listen to the question and speak out your answer!,949.1507089138031,None,949.1306201934815,951.1499059200287,Wer soll den Geschirrspüler einräumen?,einräumen,950.5331864118576,None,953.0998804330826,None,965.7339865922928,None,967.1507480144501,None,./data/Subject_05/Session_02/Exp_data/2020_Aug_17_1218/rec_QA_run_02_block_000_trial_003.wav,,,,05,02,Norwegian,A2,True,False,True,False,False,True,True,True,True,True,True,True,No,2,No,No,No,No,2020_Aug_17_1218,nibs_stage_1,3.2.3,60.00022888270905,
2,0,2,0,,,,,0,0,0,0,4,0,4,0,,,,,,,,,,,,,,,,,,,,,,,,,,,,,,,,,,,,,,,,,,,,,,,,,Listen to the question and speak out your answer!,970.2184369564056,None,970.1983045816422,972.2175848484039,"Leichte Sprache ist eine Hilfe für Menschen , die keine schwierige Sprache verstehen.",verstehen,971.6009735822678,None,977.0012304544449,978.017972946167,986.8017425298691,None,988.2184908390045,None,./data/Subject_05/Session_02/Exp_data/2020_Aug_17_1218/rec_QA_run_02_block_000_trial_004.wav,,,,05,02,Norwegian,A2,True,False,True,False,False,True,True,True,True,True,True,True,No,2,No,No,No,No,2020_Aug_17_1218,nibs_stage_1,3.2.3,60.00022888270905,
2,0,2,0,,,,,0,0,0,0,5,0,5,0,,,,,,,,,,,,,,,,,,,,,,,,,,,,,,,,,,,,,,,,,,,,,,,,,Listen to the question and speak out your answer!,991.2359728813171,None,991.2160930156708,993.23539686203,Nach dem großen Essen war mein Hunger gestillt.,gestillt,992.6186074972153,995.235503911972,995.6188554525376,996.635598897934,1007.8193964719773,1008.8362398147583,1009.2362358570099,None,./data/Subject_05/Session_02/Exp_data/2020_Aug_17_1218/rec_QA_run_02_block_000_trial_005.wav,,,,05,02,Norwegian,A2,True,False,True,False,False,True,True,True,True,True,True,True,No,2,No,No,No,No,2020_Aug_17_1218,nibs_stage_1,3.2.3,60.00022888270905,
2,0,2,0,,,,,0,0,0,0,6,0,6,0,,,,,,,,,,,,,,,,,,,,,,,,,,,,,,,,,,,,,,,,,,,,,,,,,Listen to the question and speak out your answer!,1012.2870869636536,None,1012.2671951770783,1014.2865109443665,Ich möchte gerne ein Zimmer im Hilton-Hotel reservieren.,reservieren,1013.669722533226,1016.9534149169922,1017.3366565465927,None,1028.870691514015,None,1030.2873318195343,None,./data/Subject_05/Session_02/Exp_data/2020_Aug_17_1218/rec_QA_run_02_block_000_trial_006.wav,,,,05,02,Norwegian,A2,True,False,True,False,False,True,True,True,True,True,True,True,No,2,No,No,No,No,2020_Aug_17_1218,nibs_stage_1,3.2.3,60.00022888270905,
2,0,2,0,,,,,0,0,0,0,7,0,7,0,,,,,,,,,,,,,,,,,,,,,,,,,,,,,,,,,,,,,,,,,,,,,,,,,Listen to the question and speak out your answer!,1033.3547868728638,None,1033.3349615812301,1035.354336977005,"Sie war zu stolz, um ihn um Hilfe zu bitten.",bitten,1034.7375705003737,None,1038.0377235174178,None,1049.9383854627608,None,1051.3550770282745,None,./data/Subject_05/Session_02/Exp_data/2020_Aug_17_1218/rec_QA_run_02_block_000_trial_007.wav,,,,05,02,Norwegian,A2,True,False,True,False,False,True,True,True,True,True,True,True,No,2,No,No,No,No,2020_Aug_17_1218,nibs_stage_1,3.2.3,60.00022888270905,
2,0,2,0,,,,,0,0,0,0,8,0,8,0,,,,,,,,,,,,,,,,,,,,,,,,,,,,,,,,,,,,,,,,,,,,,,,,,Listen to the question and speak out your answer!,1054.3726489543915,None,1054.3359694242477,1056.372032880783,"Es hat die ganze Woche geregnet, aber heute scheint endlich die Sonne. ",scheint,1055.7553186178206,None,1060.2888946294784,None,1070.9226875066756,None,1072.3395838737488,None,./data/Subject_05/Session_02/Exp_data/2020_Aug_17_1218/rec_QA_run_02_block_000_trial_008.wav,,,,05,02,Norwegian,A2,True,False,True,False,False,True,True,True,True,True,True,True,No,2,No,No,No,No,2020_Aug_17_1218,nibs_stage_1,3.2.3,60.00022888270905,
2,0,2,0,,,,,0,0,0,0,9,0,9,0,,,,,,,,,,,,,,,,,,,,,,,,,,,,,,,,,,,,,,,,,,,,,,,,,Listen to the question and speak out your answer!,1075.40638589859,None,1075.3704730987547,1077.4064619541168,"Sie hat Schlafmittel genommen, damit sie gut schlafen kann.",schlafen,1076.7897474527358,None,1080.7566675901412,None,1091.9905564546584,None,1093.4072978496552,None,./data/Subject_05/Session_02/Exp_data/2020_Aug_17_1218/rec_QA_run_02_block_000_trial_009.wav,,,,05,02,Norwegian,A2,True,False,True,False,False,True,True,True,True,True,True,True,No,2,No,No,No,No,2020_Aug_17_1218,nibs_stage_1,3.2.3,60.00022888270905,
2,0,2,0,,,,,0,0,0,0,10,0,10,0,,,,,,,,,,,,,,,,,,,,,,,,,,,,,,,,,,,,,,,,,,,,,,,,,Listen to the question and speak out your answer!,1096.4408960342407,None,1096.4049210071562,1098.4409019947052,Bist du schon mal auf einem Pony geritten? ,geritten,1097.7908265352248,None,1100.4909825086593,None,1112.991548514366,None,1114.408383846283,None,./data/Subject_05/Session_02/Exp_data/2020_Aug_17_1218/rec_QA_run_02_block_000_trial_010.wav,,,,05,02,Norwegian,A2,True,False,True,False,False,True,True,True,True,True,True,True,No,2,No,No,No,No,2020_Aug_17_1218,nibs_stage_1,3.2.3,60.00022888270905,
2,0,2,0,,,,,0,0,0,0,11,0,11,0,,,,,,,,,,,,,,,,,,,,,,,,,,,,,,,,,,,,,,,,,,,,,,,,,Listen to the question and speak out your answer!,1117.4758579730988,None,1117.4393531799315,1119.475338935852,Während der Weihnachtszeit gibt es unter dem Weihnachtsbaum Geschenke für die Kinder.,gibt,1118.8587875127791,None,1123.8255145311355,None,1134.042728638649,None,1135.4596028327942,None,./data/Subject_05/Session_02/Exp_data/2020_Aug_17_1218/rec_QA_run_02_block_000_trial_011.wav,,,,05,02,Norwegian,A2,True,False,True,False,False,True,True,True,True,True,True,True,No,2,No,No,No,No,2020_Aug_17_1218,nibs_stage_1,3.2.3,60.00022888270905,
2,0,2,0,,,,,0,0,0,0,12,0,12,0,,,,,,,,,,,,,,,,,,,,,,,,,,,,,,,,,,,,,,,,,,,,,,,,,Listen to the question and speak out your answer!,1138.527221918106,None,1138.5070916891098,1140.5263998508453,"Ich geht auf das Postamt, um ein Paket meinem Freund zu schicken.",schicken,1139.876500582695,1143.7599170207977,1144.1765904188155,1145.193325996399,1155.077148413658,None,1156.4938929080963,None,./data/Subject_05/Session_02/Exp_data/2020_Aug_17_1218/rec_QA_run_02_block_000_trial_012.wav,,,,05,02,Norwegian,A2,True,False,True,False,False,True,True,True,True,True,True,True,No,2,No,No,No,No,2020_Aug_17_1218,nibs_stage_1,3.2.3,60.00022888270905,
2,0,2,0,,,,,0,0,0,0,13,0,13,0,,,,,,,,,,,,,,,,,,,,,,,,,,,,,,,,,,,,,,,,,,,,,,,,,Listen to the question and speak out your answer!,1159.561250925064,None,1159.5414597272872,1161.5608358383179,Vor dem Supermarkt kann man auf einer großen Fläche parken. ,parken,1160.9440214395522,None,1164.8109965085982,None,1176.1449455976485,None,1177.5616738796234,None,./data/Subject_05/Session_02/Exp_data/2020_Aug_17_1218/rec_QA_run_02_block_000_trial_013.wav,,,,05,02,Norwegian,A2,True,False,True,False,False,True,True,True,True,True,True,True,No,2,No,No,No,No,2020_Aug_17_1218,nibs_stage_1,3.2.3,60.00022888270905,
2,0,2,0,,,,,0,0,0,0,14,0,14,0,,,,,,,,,,,,,,,,,,,,,,,,,,,,,,,,,,,,,,,,,,,,,,,,,Listen to the question and speak out your answer!,1180.595803976059,None,1180.5593101501463,1182.5952780246735,Der moderne Mensch ist ursprünglich aus Afrika gekommen.,gekommen,1181.9452175855636,None,1185.7454244852065,1186.7621519565582,1197.1460134744643,None,1198.5626728534698,None,./data/Subject_05/Session_02/Exp_data/2020_Aug_17_1218/rec_QA_run_02_block_000_trial_014.wav,,,,05,02,Norwegian,A2,True,False,True,False,False,True,True,True,True,True,True,True,No,2,No,No,No,No,2020_Aug_17_1218,nibs_stage_1,3.2.3,60.00022888270905,
2,0,2,0,,,,,0,0,0,0,15,0,15,0,,,,,,,,,,,,,,,,,,,,,,,,,,,,,,,,,,,,,,,,,,,,,,,,,Listen to the question and speak out your answer!,1201.6295778751373,None,1201.6103667497634,1203.6296908855438,Auf Lavaerde wachsen sehr gute Weintrauben.,wachsen,1203.0129866361617,None,1206.5464944601058,None,1218.2137725114821,None,1219.6307299137115,None,./data/Subject_05/Session_02/Exp_data/2020_Aug_17_1218/rec_QA_run_02_block_000_trial_015.wav,,,,05,02,Norwegian,A2,True,False,True,False,False,True,True,True,True,True,True,True,No,2,No,No,No,No,2020_Aug_17_1218,nibs_stage_1,3.2.3,60.00022888270905,
2,0,2,0,,,,,0,0,0,0,16,0,16,0,,,,,,,,,,,,,,,,,,,,,,,,,,,,,,,,,,,,,,,,,,,,,,,,,Listen to the question and speak out your answer!,1222.6647720336914,None,1222.628223133087,1224.6644649505615,Ich musste heute Morgen richtig schnell nach der Busstation laufen.,laufen,1224.047620511055,1227.898293018341,1228.2809884309768,None,1239.24828145504,None,1240.6649708747864,None,./data/Subject_05/Session_02/Exp_data/2020_Aug_17_1218/rec_QA_run_02_block_000_trial_016.wav,,,,05,02,Norwegian,A2,True,False,True,False,False,True,True,True,True,True,True,True,No,2,No,No,No,No,2020_Aug_17_1218,nibs_stage_1,3.2.3,60.00022888270905,
2,0,2,0,,,,,0,0,0,0,17,0,17,0,,,,,,,,,,,,,,,,,,,,,,,,,,,,,,,,,,,,,,,,,,,,,,,,,Listen to the question and speak out your answer!,1243.69939494133,None,1243.679211783409,1245.698460817337,"Mein Handy ist schon eingeschaltet, so dass Sie mich jederzeit anrufen können.",anrufen,1245.081842637062,None,1250.0487775564193,None,1260.2826626062392,None,1261.699383020401,None,./data/Subject_05/Session_02/Exp_data/2020_Aug_17_1218/rec_QA_run_02_block_000_trial_017.wav,,,,05,02,Norwegian,A2,True,False,True,False,False,True,True,True,True,True,True,True,No,2,No,No,No,No,2020_Aug_17_1218,nibs_stage_1,3.2.3,60.00022888270905,
2,0,2,0,,,,,0,0,0,0,18,0,18,0,,,,,,,,,,,,,,,,,,,,,,,,,,,,,,,,,,,,,,,,,,,,,,,,,Listen to the question and speak out your answer!,1264.733384847641,None,1264.7136546850204,1266.733108997345,"Ich sollte aufstehen, wenn morgens der Wecker geläutet.",geläutet,1266.1162714719771,1269.4000279903412,1269.7497815847396,None,1281.3170475721358,None,1282.7339358329773,None,./data/Subject_05/Session_02/Exp_data/2020_Aug_17_1218/rec_QA_run_02_block_000_trial_018.wav,,,,05,02,Norwegian,A2,True,False,True,False,False,True,True,True,True,True,True,True,No,2,No,No,No,No,2020_Aug_17_1218,nibs_stage_1,3.2.3,60.00022888270905,
2,0,2,0,,,,,0,0,0,0,19,0,19,0,,,,,,,,,,,,,,,,,,,,,,,,,,,,,,,,,,,,,,,,,,,,,,,,,Listen to the question and speak out your answer!,1285.7674379348755,None,1285.73143119812,1287.7674288749695,"Die Firma hat einen Fachmann hinzugezogen, um das Netzwerk zu reparieren.",reparieren,1287.1173705816268,None,1292.3176424264907,1293.3343789577484,1302.3181314229964,None,1303.7348959445953,None,./data/Subject_05/Session_02/Exp_data/2020_Aug_17_1218/rec_QA_run_02_block_000_trial_019.wav,,,,05,02,Norwegian,A2,True,False,True,False,False,True,True,True,True,True,True,True,No,2,No,No,No,No,2020_Aug_17_1218,nibs_stage_1,3.2.3,60.00022888270905,
2,0,2,0,,,,,0,0,0,0,20,0,20,0,,,,,,,,,,,,,,,,,,,,,,,,,,,,,,,,,,,,,,,,,,,,,,,,,Listen to the question and speak out your answer!,1306.8357179164886,None,1306.7991413116454,1308.8350949287415,"Ist es für den Vermieter möglich, den Mieter nach der Rechtslage zu kündigen?",kündigen,1308.185144639015,1312.46875,1312.8853685617446,None,1323.3859164476394,1324.4026498794556,1324.8027048110962,None,./data/Subject_05/Session_02/Exp_data/2020_Aug_17_1218/rec_QA_run_02_block_000_trial_020.wav,,,,05,02,Norwegian,A2,True,False,True,False,False,True,True,True,True,True,True,True,No,2,No,No,No,No,2020_Aug_17_1218,nibs_stage_1,3.2.3,60.00022888270905,
2,0,2,0,,,,,0,0,0,0,21,0,21,0,,,,,,,,,,,,,,,,,,,,,,,,,,,,,,,,,,,,,,,,,,,,,,,,,Listen to the question and speak out your answer!,1327.870894908905,None,1327.8503755807876,1329.8696010112762,"Wir sollten in den Bus einsteigen, bevor er abfährt.",einsteigen,1329.2528145074843,1332.3364729881287,1332.7197465658187,None,1344.453670477867,None,1345.8704979419708,None,./data/Subject_05/Session_02/Exp_data/2020_Aug_17_1218/rec_QA_run_02_block_000_trial_021.wav,,,,05,02,Norwegian,A2,True,False,True,False,False,True,True,True,True,True,True,True,No,2,No,No,No,No,2020_Aug_17_1218,nibs_stage_1,3.2.3,60.00022888270905,
2,0,2,0,,,,,0,0,0,0,22,0,22,0,,,,,,,,,,,,,,,,,,,,,,,,,,,,,,,,,,,,,,,,,,,,,,,,,Listen to the question and speak out your answer!,1348.9708099365234,None,1348.934688234329,1350.9707169532776,Die Teilnehmer müssen sich im Voraus für den Kurs anmelden.,anmelden,1350.3539955377578,1353.804186820984,1354.1541886091231,None,1365.5547845125197,None,1366.9715769290924,None,./data/Subject_05/Session_02/Exp_data/2020_Aug_17_1218/rec_QA_run_02_block_000_trial_022.wav,,,,05,02,Norwegian,A2,True,False,True,False,False,True,True,True,True,True,True,True,No,2,No,No,No,No,2020_Aug_17_1218,nibs_stage_1,3.2.3,60.00022888270905,
2,0,2,0,,,,,0,0,0,0,23,0,23,0,,,,,,,,,,,,,,,,,,,,,,,,,,,,,,,,,,,,,,,,,,,,,,,,,Listen to the question and speak out your answer!,1370.0056719779968,None,1369.9691440582274,1372.0052440166473,"Florian habe so lange Beine, deshalb trage er nur lange Hosen.",trage,1371.3884315252303,None,1376.0220064878463,1377.0387358665466,1386.589254593849,1387.605947971344,1388.0061058998108,None,./data/Subject_05/Session_02/Exp_data/2020_Aug_17_1218/rec_QA_run_02_block_000_trial_023.wav,,,,05,02,Norwegian,A2,True,False,True,False,False,True,True,True,True,True,True,True,No,2,No,No,No,No,2020_Aug_17_1218,nibs_stage_1,3.2.3,60.00022888270905,
2,0,2,0,,,,,0,0,0,0,24,0,24,0,,,,,,,,,,,,,,,,,,,,,,,,,,,,,,,,,,,,,,,,,,,,,,,,,Listen to the question and speak out your answer!,1391.0234549045563,None,1390.9871995210647,1393.0229089260101,"Der Aufzug ist repariert, jetzt funktioniert er wieder.",repariert,1392.3728506326675,1395.8230648040771,1396.2397465467452,1397.2563769817352,1407.5736365079879,None,1408.9904248714447,None,./data/Subject_05/Session_02/Exp_data/2020_Aug_17_1218/rec_QA_run_02_block_000_trial_024.wav,,,,05,02,Norwegian,A2,True,False,True,False,False,True,True,True,True,True,True,True,No,2,No,No,No,No,2020_Aug_17_1218,nibs_stage_1,3.2.3,60.00022888270905,
2,0,2,0,,,,,0,0,0,0,,,,,,,,,,,,,,,,,,,,,,,,,,,,,,,,,,,,,,,,,,1413.0407648086548,None,,,,,,,,,,,,,,,,,,,,,,,,,,,,,05,02,Norwegian,A2,True,False,True,False,False,True,True,True,True,True,True,True,No,2,No,No,No,No,2020_Aug_17_1218,nibs_stage_1,3.2.3,60.00022888270905,
2,0,2,0,,,,,1,0,1,0,0,0,0,0,,,,,,,,,,,,,,,,,,,,,,,,,,,,,,,,,,,,,,,,,,,,,,,,,Listen to the question and speak out your answer!,1427.2087960243225,None,1427.1875827789306,1429.2082078456879,"Ich heiße Tibor, wie ist dein Name?",heiße,1428.5914165735244,1431.0082378387451,1431.3582145929336,None,1443.7921914815902,None,1445.2089619636536,None,./data/Subject_05/Session_02/Exp_data/2020_Aug_17_1218/rec_QA_run_02_block_001_trial_000.wav,,,,05,02,Norwegian,A2,True,False,True,False,False,True,True,True,True,True,True,True,No,2,No,No,No,No,2020_Aug_17_1218,nibs_stage_1,3.2.3,60.00022888270905,
2,0,2,0,,,,,1,0,1,0,1,0,1,0,,,,,,,,,,,,,,,,,,,,,,,,,,,,,,,,,,,,,,,,,,,,,,,,,Listen to the question and speak out your answer!,1448.292564868927,None,1448.2565497636795,1450.2925548553467,Ich möchte einen Flug nach Spanien buchen.,buchen,1449.6758455991744,1452.2595899105072,1452.6425845384597,None,1464.876628613472,None,1466.293401002884,None,./data/Subject_05/Session_02/Exp_data/2020_Aug_17_1218/rec_QA_run_02_block_001_trial_001.wav,,,,05,02,Norwegian,A2,True,False,True,False,False,True,True,True,True,True,True,True,No,2,No,No,No,No,2020_Aug_17_1218,nibs_stage_1,3.2.3,60.00022888270905,
2,0,2,0,,,,,1,0,1,0,2,0,2,0,,,,,,,,,,,,,,,,,,,,,,,,,,,,,,,,,,,,,,,,,,,,,,,,,Listen to the question and speak out your answer!,1469.3275399208069,None,1469.291001987457,1471.3269939422607,An der nächsten Kreuzung müssen Sie rechts abbiegen.,abbiegen,1470.7102665662765,None,1473.9104544878005,1474.9271829128265,1485.9110674619674,1486.9277818202972,1487.327910900116,None,./data/Subject_05/Session_02/Exp_data/2020_Aug_17_1218/rec_QA_run_02_block_001_trial_002.wav,,,,05,02,Norwegian,A2,True,False,True,False,False,True,True,True,True,True,True,True,No,2,No,No,No,No,2020_Aug_17_1218,nibs_stage_1,3.2.3,60.00022888270905,
2,0,2,0,,,,,1,0,1,0,3,0,3,0,,,,,,,,,,,,,,,,,,,,,,,,,,,,,,,,,,,,,,,,,,,,,,,,,Listen to the question and speak out your answer!,1490.361939907074,None,1490.3420786142349,1492.361568927765,Die Mieter wollen die Vertragsbedingungen ändern.,ändern,1491.7447094678878,1494.4618020057678,1494.844883418083,None,1506.9455525636672,None,1508.362293958664,None,./data/Subject_05/Session_02/Exp_data/2020_Aug_17_1218/rec_QA_run_02_block_001_trial_003.wav,,,,05,02,Norwegian,A2,True,False,True,False,False,True,True,True,True,True,True,True,No,2,No,No,No,No,2020_Aug_17_1218,nibs_stage_1,3.2.3,60.00022888270905,
2,0,2,0,,,,,1,0,1,0,4,0,4,0,,,,,,,,,,,,,,,,,,,,,,,,,,,,,,,,,,,,,,,,,,,,,,,,,Listen to the question and speak out your answer!,1511.3962268829346,None,1511.3598761081694,1513.3958938121796,Die Milch riecht verdorben.,riecht,1512.7791485548018,None,1514.7792615652083,1515.79598402977,1527.9632835149764,None,1529.3801019191742,None,./data/Subject_05/Session_02/Exp_data/2020_Aug_17_1218/rec_QA_run_02_block_001_trial_004.wav,,,,05,02,Norwegian,A2,True,False,True,False,False,True,True,True,True,True,True,True,No,2,No,No,No,No,2020_Aug_17_1218,nibs_stage_1,3.2.3,60.00022888270905,
2,0,2,0,,,,,1,0,1,0,5,0,5,0,,,,,,,,,,,,,,,,,,,,,,,,,,,,,,,,,,,,,,,,,,,,,,,,,Listen to the question and speak out your answer!,1532.4310929775238,None,1532.4109830379484,1534.4304149150848,"Wissen Sie, wer als erster Bergsteiger den Mount Everest bestiegen hat?",bestiegen,1533.8135685682296,1538.1971669197083,1538.5805115461349,None,1549.0143735170363,None,1550.4311308860779,None,./data/Subject_05/Session_02/Exp_data/2020_Aug_17_1218/rec_QA_run_02_block_001_trial_005.wav,,,,05,02,Norwegian,A2,True,False,True,False,False,True,True,True,True,True,True,True,No,2,No,No,No,No,2020_Aug_17_1218,nibs_stage_1,3.2.3,60.00022888270905,
2,0,2,0,,,,,1,0,1,0,6,0,6,0,,,,,,,,,,,,,,,,,,,,,,,,,,,,,,,,,,,,,,,,,,,,,,,,,Listen to the question and speak out your answer!,1553.4980368614197,None,1553.4787246465683,1555.4980728626251,"Alchemisten haben geglaubt, sie können Gold herstellen.",herstellen,1554.8813404798507,None,1558.7816574335097,1559.7983210086823,1570.082148528099,None,1571.4988749027252,None,./data/Subject_05/Session_02/Exp_data/2020_Aug_17_1218/rec_QA_run_02_block_001_trial_006.wav,,,,05,02,Norwegian,A2,True,False,True,False,False,True,True,True,True,True,True,True,No,2,No,No,No,No,2020_Aug_17_1218,nibs_stage_1,3.2.3,60.00022888270905,
2,0,2,0,,,,,1,0,1,0,7,0,7,0,,,,,,,,,,,,,,,,,,,,,,,,,,,,,,,,,,,,,,,,,,,,,,,,,Listen to the question and speak out your answer!,1574.5332188606262,None,1574.5131947278976,1576.5324800014496,"Das Mädchen wollte etwas sagen, also hob sie ihre Hand.",sagen,1575.9158425092696,None,1579.782648539543,None,1591.1167135000228,None,1592.5333189964294,None,./data/Subject_05/Session_02/Exp_data/2020_Aug_17_1218/rec_QA_run_02_block_001_trial_007.wav,,,,05,02,Norwegian,A2,True,False,True,False,False,True,True,True,True,True,True,True,No,2,No,No,No,No,2020_Aug_17_1218,nibs_stage_1,3.2.3,60.00022888270905,
2,0,2,0,,,,,1,0,1,0,8,0,8,0,,,,,,,,,,,,,,,,,,,,,,,,,,,,,,,,,,,,,,,,,,,,,,,,,Listen to the question and speak out your answer!,1595.5841398239136,None,1595.5475637197494,1597.583655834198,Linda packt immer viel zu viele Kleidung in ihren Koffer.,packt,1596.9335334062575,1600.3170399665833,1600.700392460823,None,1612.1343455076217,1613.1511030197144,1613.5510919094086,None,./data/Subject_05/Session_02/Exp_data/2020_Aug_17_1218/rec_QA_run_02_block_001_trial_008.wav,,,,05,02,Norwegian,A2,True,False,True,False,False,True,True,True,True,True,True,True,No,2,No,No,No,No,2020_Aug_17_1218,nibs_stage_1,3.2.3,60.00022888270905,
2,0,2,0,,,,,1,0,1,0,9,0,9,0,,,,,,,,,,,,,,,,,,,,,,,,,,,,,,,,,,,,,,,,,,,,,,,,,Listen to the question and speak out your answer!,1616.618005990982,None,1616.5820810317991,1618.6179330348969,Alle diese Probleme scheinen in dieselbe große Frage zu münden.,scheinen,1617.9679634332656,1622.018117904663,1622.4015664815902,None,1633.1687624216079,None,1634.58544588089,None,./data/Subject_05/Session_02/Exp_data/2020_Aug_17_1218/rec_QA_run_02_block_001_trial_009.wav,,,,05,02,Norwegian,A2,True,False,True,False,False,True,True,True,True,True,True,True,No,2,No,No,No,No,2020_Aug_17_1218,nibs_stage_1,3.2.3,60.00022888270905,
2,0,2,0,,,,,1,0,1,0,10,0,10,0,,,,,,,,,,,,,,,,,,,,,,,,,,,,,,,,,,,,,,,,,,,,,,,,,Listen to the question and speak out your answer!,1637.6524410247803,None,1637.6331297636032,1639.6524488925934,Er heißt tatsächlich Alexander doch alle nennen ihn Alex.,nennen,1639.0357296228408,1642.4859368801117,1642.8692636251449,None,1654.2365634202956,None,1655.6533048152924,None,./data/Subject_05/Session_02/Exp_data/2020_Aug_17_1218/rec_QA_run_02_block_001_trial_010.wav,,,,05,02,Norwegian,A2,True,False,True,False,False,True,True,True,True,True,True,True,No,2,No,No,No,No,2020_Aug_17_1218,nibs_stage_1,3.2.3,60.00022888270905,
2,0,2,0,,,,,1,0,1,0,11,0,11,0,,,,,,,,,,,,,,,,,,,,,,,,,,,,,,,,,,,,,,,,,,,,,,,,,Listen to the question and speak out your answer!,1658.6707549095154,None,1658.6342434644698,1660.6702089309692,"Wir planen eine Route durch das ganze Land, von Westen bis Osten.",planen,1660.0201704263686,None,1664.5870594739913,1665.6038188934326,1675.2209944486617,None,1676.6377148628235,None,./data/Subject_05/Session_02/Exp_data/2020_Aug_17_1218/rec_QA_run_02_block_001_trial_011.wav,,,,05,02,Norwegian,A2,True,False,True,False,False,True,True,True,True,True,True,True,No,2,No,No,No,No,2020_Aug_17_1218,nibs_stage_1,3.2.3,60.00022888270905,
2,0,2,0,,,,,1,0,1,0,12,0,12,0,,,,,,,,,,,,,,,,,,,,,,,,,,,,,,,,,,,,,,,,,,,,,,,,,Listen to the question and speak out your answer!,1679.6879830360413,None,1679.6519915819167,1681.6879889965057,Das Herz kann Blut durch den Körper pumpen.,pumpen,1681.0381264448165,None,1684.0714144468307,None,1696.2386295557021,None,1697.6554729938507,None,./data/Subject_05/Session_02/Exp_data/2020_Aug_17_1218/rec_QA_run_02_block_001_trial_012.wav,,,,05,02,Norwegian,A2,True,False,True,False,False,True,True,True,True,True,True,True,No,2,No,No,No,No,2020_Aug_17_1218,nibs_stage_1,3.2.3,60.00022888270905,
2,0,2,0,,,,,1,0,1,0,13,0,13,0,,,,,,,,,,,,,,,,,,,,,,,,,,,,,,,,,,,,,,,,,,,,,,,,,Listen to the question and speak out your answer!,1700.724004983902,None,1700.7029527902603,1702.7224118709564,Die Präsentation dauert eine halbe Stunde.,dauert,1702.1056926012038,None,1705.2391714811324,1706.2559268474579,1717.2898375749587,None,1718.7067468166351,None,./data/Subject_05/Session_02/Exp_data/2020_Aug_17_1218/rec_QA_run_02_block_001_trial_013.wav,,,,05,02,Norwegian,A2,True,False,True,False,False,True,True,True,True,True,True,True,No,2,No,No,No,No,2020_Aug_17_1218,nibs_stage_1,3.2.3,60.00022888270905,
2,0,2,0,,,,,1,0,1,0,14,0,14,0,,,,,,,,,,,,,,,,,,,,,,,,,,,,,,,,,,,,,,,,,,,,,,,,,Listen to the question and speak out your answer!,1721.7737848758698,None,1721.7541457891464,1723.773449897766,Meine Uhr zeigt die aktuelle Uhrzeit in Berlin und New York an.,zeigt,1723.1568014383315,1727.1403679847717,1727.5237076044082,None,1738.3576004266738,None,1739.7743740081787,None,./data/Subject_05/Session_02/Exp_data/2020_Aug_17_1218/rec_QA_run_02_block_001_trial_014.wav,,,,05,02,Norwegian,A2,True,False,True,False,False,True,True,True,True,True,True,True,No,2,No,No,No,No,2020_Aug_17_1218,nibs_stage_1,3.2.3,60.00022888270905,
2,0,2,0,,,,,1,0,1,0,15,0,15,0,,,,,,,,,,,,,,,,,,,,,,,,,,,,,,,,,,,,,,,,,,,,,,,,,Listen to the question and speak out your answer!,1742.8095438480377,None,1742.7886027574539,1744.8082149028778,"Lebensmittel sind die Dinge, die man essen kann.",essen,1744.191217637062,None,1747.458057618141,1748.4747838974,1759.3920266389846,1760.4087889194489,1760.8087799549103,None,./data/Subject_05/Session_02/Exp_data/2020_Aug_17_1218/rec_QA_run_02_block_001_trial_015.wav,,,,05,02,Norwegian,A2,True,False,True,False,False,True,True,True,True,True,True,True,No,2,No,No,No,No,2020_Aug_17_1218,nibs_stage_1,3.2.3,60.00022888270905,
2,0,2,0,,,,,1,0,1,0,16,0,16,0,,,,,,,,,,,,,,,,,,,,,,,,,,,,,,,,,,,,,,,,,,,,,,,,,Listen to the question and speak out your answer!,1763.875744819641,None,1763.8397111415861,1765.8757598400116,Der Mörder wollte die Gründe für seine Tat nicht nennen.,nennen,1765.2256545782088,1768.242774963379,1768.625839447975,1769.6428649425507,1780.4263455629348,None,1781.8431868553162,None,./data/Subject_05/Session_02/Exp_data/2020_Aug_17_1218/rec_QA_run_02_block_001_trial_016.wav,,,,05,02,Norwegian,A2,True,False,True,False,False,True,True,True,True,True,True,True,No,2,No,No,No,No,2020_Aug_17_1218,nibs_stage_1,3.2.3,60.00022888270905,
2,0,2,0,,,,,1,0,1,0,17,0,17,0,,,,,,,,,,,,,,,,,,,,,,,,,,,,,,,,,,,,,,,,,,,,,,,,,Listen to the question and speak out your answer!,1784.8942799568176,None,1784.874257993698,1786.8934569358826,Sebastian mag lieber ein schwarzes Brot mit Butter und Marmelade.,mag,1786.2767514944076,None,1790.8769116163253,None,1801.4776556253432,None,1802.8943128585815,None,./data/Subject_05/Session_02/Exp_data/2020_Aug_17_1218/rec_QA_run_02_block_001_trial_017.wav,,,,05,02,Norwegian,A2,True,False,True,False,False,True,True,True,True,True,True,True,No,2,No,No,No,No,2020_Aug_17_1218,nibs_stage_1,3.2.3,60.00022888270905,
2,0,2,0,,,,,1,0,1,0,18,0,18,0,,,,,,,,,,,,,,,,,,,,,,,,,,,,,,,,,,,,,,,,,,,,,,,,,Listen to the question and speak out your answer!,1805.9784009456635,None,1805.9420468091964,1807.9778950214386,Das Mädchen kümmert sich um seine erkältete Mutter.,kümmert,1807.3278524637221,1810.4447898864746,1810.861374592781,1811.8781189918518,1822.5286295175551,None,1823.945415019989,None,./data/Subject_05/Session_02/Exp_data/2020_Aug_17_1218/rec_QA_run_02_block_001_trial_018.wav,,,,05,02,Norwegian,A2,True,False,True,False,False,True,True,True,True,True,True,True,No,2,No,No,No,No,2020_Aug_17_1218,nibs_stage_1,3.2.3,60.00022888270905,
2,0,2,0,,,,,1,0,1,0,19,0,19,0,,,,,,,,,,,,,,,,,,,,,,,,,,,,,,,,,,,,,,,,,,,,,,,,,Listen to the question and speak out your answer!,1827.0294439792633,None,1826.9929837465286,1829.0290169715881,"Mutters Einkäufe sind so schwer, deshalb bittet sie Jon, die Tasche zu tragen.",tragen,1828.3790905237197,1833.2292518615723,1833.6127545595168,None,1843.5796825647353,None,1844.996533870697,None,./data/Subject_05/Session_02/Exp_data/2020_Aug_17_1218/rec_QA_run_02_block_001_trial_019.wav,,,,05,02,Norwegian,A2,True,False,True,False,False,True,True,True,True,True,True,True,No,2,No,No,No,No,2020_Aug_17_1218,nibs_stage_1,3.2.3,60.00022888270905,
2,0,2,0,,,,,1,0,1,0,20,0,20,0,,,,,,,,,,,,,,,,,,,,,,,,,,,,,,,,,,,,,,,,,,,,,,,,,Listen to the question and speak out your answer!,1848.0640859603882,None,1848.0274509906767,1850.0639979839325,Sonja nimmt ihren Tee mit Milch und Zucker.,nimmt,1849.446736550331,None,1852.5469035863875,None,1864.6477114915847,None,1866.0643239021301,None,./data/Subject_05/Session_02/Exp_data/2020_Aug_17_1218/rec_QA_run_02_block_001_trial_020.wav,,,,05,02,Norwegian,A2,True,False,True,False,False,True,True,True,True,True,True,True,No,2,No,No,No,No,2020_Aug_17_1218,nibs_stage_1,3.2.3,60.00022888270905,
2,0,2,0,,,,,1,0,1,0,21,0,21,0,,,,,,,,,,,,,,,,,,,,,,,,,,,,,,,,,,,,,,,,,,,,,,,,,Listen to the question and speak out your answer!,1869.0984089374542,None,1869.0618772029875,1871.0978899002075,Junge Leute machen gerne Partys.,machen,1870.4478475809096,None,1873.3146335840224,None,1885.648612475395,None,1887.0652918815613,None,./data/Subject_05/Session_02/Exp_data/2020_Aug_17_1218/rec_QA_run_02_block_001_trial_021.wav,,,,05,02,Norwegian,A2,True,False,True,False,False,True,True,True,True,True,True,True,No,2,No,No,No,No,2020_Aug_17_1218,nibs_stage_1,3.2.3,60.00022888270905,
2,0,2,0,,,,,1,0,1,0,22,0,22,0,,,,,,,,,,,,,,,,,,,,,,,,,,,,,,,,,,,,,,,,,,,,,,,,,Listen to the question and speak out your answer!,1890.1336920261383,None,1890.1129795789718,1892.1323239803314,"Meine Mutter kocht heute Mittag nicht, wir gehen aus zum Essen.",kocht,1891.51559946537,None,1895.615794634819,None,1906.6831595659255,1907.6997799873352,1908.0998229980469,None,./data/Subject_05/Session_02/Exp_data/2020_Aug_17_1218/rec_QA_run_02_block_001_trial_022.wav,,,,05,02,Norwegian,A2,True,False,True,False,False,True,True,True,True,True,True,True,No,2,No,No,No,No,2020_Aug_17_1218,nibs_stage_1,3.2.3,60.00022888270905,
2,0,2,0,,,,,1,0,1,0,23,0,23,0,,,,,,,,,,,,,,,,,,,,,,,,,,,,,,,,,,,,,,,,,,,,,,,,,Listen to the question and speak out your answer!,1911.1513748168945,None,1911.1309110641478,1913.150060892105,"Danke für den Smoothie, den Sie mir machten.",machten,1912.533359503746,None,1915.5335244894027,None,1927.734285569191,None,1929.150897026062,None,./data/Subject_05/Session_02/Exp_data/2020_Aug_17_1218/rec_QA_run_02_block_001_trial_023.wav,,,,05,02,Norwegian,A2,True,False,True,False,False,True,True,True,True,True,True,True,No,2,No,No,No,No,2020_Aug_17_1218,nibs_stage_1,3.2.3,60.00022888270905,
2,0,2,0,,,,,1,0,1,0,24,0,24,0,,,,,,,,,,,,,,,,,,,,,,,,,,,,,,,,,,,,,,,,,,,,,,,,,Listen to the question and speak out your answer!,1932.21785902977,None,1932.1819650650023,1934.21785902977,Die Zähne werden geputzt und der Bart rasiert.,rasiert,1933.6012615919112,1936.5513980388641,1936.901293492317,1937.9180719852448,1948.768590426445,1949.7853209972382,1950.1853368282318,None,./data/Subject_05/Session_02/Exp_data/2020_Aug_17_1218/rec_QA_run_02_block_001_trial_024.wav,,,,05,02,Norwegian,A2,True,False,True,False,False,True,True,True,True,True,True,True,No,2,No,No,No,No,2020_Aug_17_1218,nibs_stage_1,3.2.3,60.00022888270905,
2,0,2,0,,,,,1,0,1,0,,,,,,,,,,,,,,,,,,,,,,,,,,,,,,,,,,,,,,,,,,1954.2355508804321,None,,,,,,,,,,,,,,,,,,,,,,,,,,,,,05,02,Norwegian,A2,True,False,True,False,False,True,True,True,True,True,True,True,No,2,No,No,No,No,2020_Aug_17_1218,nibs_stage_1,3.2.3,60.00022888270905,
2,0,2,0,,,,,,,,,,,,,,,,,,,,,,,,,,,,,,,,,,,,,,,,,,,,,,,,,,,,,,,,,,,,,,,,,,,,,,,,,,,,,Please remain seated until further instruction via the earphone.,53.837180852890015,None,05,02,Norwegian,A2,True,False,True,False,False,True,True,True,True,True,True,True,No,2,No,No,No,No,2020_Aug_17_1218,nibs_stage_1,3.2.3,60.00022888270905,
