run.thisRepN,run.thisTrialN,run.thisN,run.thisIndex,QA_block.thisRepN,QA_block.thisTrialN,QA_block.thisN,QA_block.thisIndex,QA_trial.thisRepN,QA_trial.thisTrialN,QA_trial.thisN,QA_trial.thisIndex,QA_intro_title.started,QA_intro_title.stopped,QA_intro_text.text,QA_intro_text.started,QA_intro_text.stopped,QA_intro_audio.started,QA_intro_audio.stopped,QA_intro_cont.started,QA_intro_cont.stopped,QA_rec_text.text,QA_rec_text.started,QA_rec_text.stopped,QA_rec_beep_hint.started,QA_rec_beep_hint.stopped,QA_rec_question.sen_text,QA_rec_question.cen_text,QA_rec_question.started,QA_rec_question.stopped,QA_rec_beep_start.started,QA_rec_beep_start.stopped,QA_rec_beep_end.started,QA_rec_beep_end.stopped,QA_rec_break.started,QA_rec_break.stopped,filename,participant,session,First language,German level,Full_screen,Instruction,Intro,Artifact,Cali_pre,Fade_in_out,Artifact_within,Resting_State,QA,Pause,Cali_post,End,Breakpoint_Cali_pre_trial,Breakpoint_Run,Breakpoint_RS_block,Breakpoint_QA_block,Breakpoint_QA_trial,Breakpoint_Cali_post_trial,date,expName,psychopyVersion,frameRate,
0,0,0,0,1,0,1,0,0,0,0,0,65.13547706604004,None," - Task: Listen to the question& Speak out answer 
 - Melodious beep sound: Trial start              
 - Silent sound (blank): censored word            
 - Beep sound with increasing pitch: Rec. start   
 - Beep sound with decreasing pitch: Rec. finish  
",65.13547706604004,None,65.11738061904907,None,104.52080917358398,None,Listen to the question and speak out your answer!,107.78732705116272,None,107.77000780105591,109.77075600624084,Die Polizei sammelte alle verfügbaren Informationen.,sammelte,109.17074222564698,112.85422897338867,113.25425333976746,None,124.37145729064942,None,125.7881920337677,None,./data/Subject_05/Session_02/Exp_data/2020_Aug_17_1119/rec_QA_run_00_block_001_trial_000.wav,05,02,Norwegian,A2,True,False,True,False,False,False,False,False,True,False,True,True,No,0,No,1,No,No,2020_Aug_17_1119,nibs_stage_1,3.2.3,59.99628090070863,
0,0,0,0,1,0,1,0,1,0,1,0,,,,,,,,,,Listen to the question and speak out your answer!,128.8223249912262,None,128.80464453697203,130.8218641281128,"Die Deutschen sind immer organisiert und werden alles planen, bevor sie irgendetwas tun.",planen,130.20500440597533,135.28863501548767,135.67203135490416,136.688707113266,145.40580339431762,None,146.82248997688293,None,./data/Subject_05/Session_02/Exp_data/2020_Aug_17_1119/rec_QA_run_00_block_001_trial_001.wav,05,02,Norwegian,A2,True,False,True,False,False,False,False,False,True,False,True,True,No,0,No,1,No,No,2020_Aug_17_1119,nibs_stage_1,3.2.3,59.99628090070863,
0,0,0,0,1,0,1,0,2,0,2,0,,,,,,,,,,Listen to the question and speak out your answer!,149.8564260005951,None,149.8389214992523,151.85605812072754,"Sie beschrieb der Polizei den Dieb so genau, dass diese ihn festnehmen konnnte.",beschrieb,151.23926825523375,155.72289299964905,156.1061563014984,None,166.42351431846618,None,167.84009408950806,None,./data/Subject_05/Session_02/Exp_data/2020_Aug_17_1119/rec_QA_run_00_block_001_trial_002.wav,05,02,Norwegian,A2,True,False,True,False,False,False,False,False,True,False,True,True,No,0,No,1,No,No,2020_Aug_17_1119,nibs_stage_1,3.2.3,59.99628090070863,
0,0,0,0,1,0,1,0,3,0,3,0,,,,,,,,,,Listen to the question and speak out your answer!,170.8735270500183,None,170.85655755996703,172.87357807159424,Man kann oft aus Fehlern lernen.,lernen,172.25697321891784,174.2070541381836,174.59042019844054,None,187.45757241249083,188.47422218322754,188.87437295913696,None,./data/Subject_05/Session_02/Exp_data/2020_Aug_17_1119/rec_QA_run_00_block_001_trial_003.wav,05,02,Norwegian,A2,True,False,True,False,False,False,False,False,True,False,True,True,No,0,No,1,No,No,2020_Aug_17_1119,nibs_stage_1,3.2.3,59.99628090070863,
0,0,0,0,1,0,1,0,4,0,4,0,,,,,,,,,,Listen to the question and speak out your answer!,191.9077501296997,None,191.8907365322113,193.9078769683838,"Bevor man ein Haus baut, zeichnet der Architekt einen Plan.",zeichnet,193.2911612510681,196.90801310539246,197.29136629104613,198.30805802345276,208.4917923927307,None,209.90865015983582,None,./data/Subject_05/Session_02/Exp_data/2020_Aug_17_1119/rec_QA_run_00_block_001_trial_004.wav,05,02,Norwegian,A2,True,False,True,False,False,False,False,False,True,False,True,True,No,0,No,1,No,No,2020_Aug_17_1119,nibs_stage_1,3.2.3,59.99628090070863,
0,0,0,0,1,0,1,0,5,0,5,0,,,,,,,,,,Listen to the question and speak out your answer!,212.94238996505737,None,212.92496557235717,214.9421730041504,"Ich ging zum Arzt, weil ich mich unangenehm fühlte.",fühlte,214.32550830841063,217.50924706459045,217.8923072338104,None,229.52615423202514,230.54297709465027,230.94279718399048,None,./data/Subject_05/Session_02/Exp_data/2020_Aug_17_1119/rec_QA_run_00_block_001_trial_005.wav,05,02,Norwegian,A2,True,False,True,False,False,False,False,False,True,False,True,True,No,0,No,1,No,No,2020_Aug_17_1119,nibs_stage_1,3.2.3,59.99628090070863,
0,0,0,0,1,0,1,0,6,0,6,0,,,,,,,,,,Listen to the question and speak out your answer!,233.9768180847168,None,233.95932645797728,235.976487159729,Ich konnte die Lärmquelle finden.,finden,235.35993428230285,237.37653398513794,237.75989933013915,None,250.56046123504638,None,251.9773621559143,None,./data/Subject_05/Session_02/Exp_data/2020_Aug_17_1119/rec_QA_run_00_block_001_trial_006.wav,05,02,Norwegian,A2,True,False,True,False,False,False,False,False,True,False,True,True,No,0,No,1,No,No,2020_Aug_17_1119,nibs_stage_1,3.2.3,59.99628090070863,
0,0,0,0,1,0,1,0,7,0,7,0,,,,,,,,,,Listen to the question and speak out your answer!,255.04429411888123,None,255.027020072937,257.04411816596985,Können Sie mir einen guten Augenarzt empfehlen?,empfehlen,256.42741532325743,None,259.6275872707367,260.6442840099335,271.62823338508605,None,273.0448331832886,None,./data/Subject_05/Session_02/Exp_data/2020_Aug_17_1119/rec_QA_run_00_block_001_trial_007.wav,05,02,Norwegian,A2,True,False,True,False,False,False,False,False,True,False,True,True,No,0,No,1,No,No,2020_Aug_17_1119,nibs_stage_1,3.2.3,59.99628090070863,
0,0,0,0,1,0,1,0,8,0,8,0,,,,,,,,,,Listen to the question and speak out your answer!,276.0952570438385,None,276.0779336929321,278.0951180458069,Linda trinkt lieber eine heiße Schokolade.,trinkt,277.47839136123656,None,280.6452362060547,281.6619441509247,292.6791142940521,293.69581508636475,294.0958499908447,None,./data/Subject_05/Session_02/Exp_data/2020_Aug_17_1119/rec_QA_run_00_block_001_trial_008.wav,05,02,Norwegian,A2,True,False,True,False,False,False,False,False,True,False,True,True,No,0,No,1,No,No,2020_Aug_17_1119,nibs_stage_1,3.2.3,59.99628090070863,
0,0,0,0,1,0,1,0,9,0,9,0,,,,,,,,,,Listen to the question and speak out your answer!,297.1465401649475,None,297.12904276847837,299.1460871696472,Ich surfe gern im Internet und chatte mit Freunden.,chatte,298.5293902873993,None,302.0629033565521,None,313.73009128570556,None,315.1470191478729,None,./data/Subject_05/Session_02/Exp_data/2020_Aug_17_1119/rec_QA_run_00_block_001_trial_009.wav,05,02,Norwegian,A2,True,False,True,False,False,False,False,False,True,False,True,True,No,0,No,1,No,No,2020_Aug_17_1119,nibs_stage_1,3.2.3,59.99628090070863,
0,0,0,0,1,0,1,0,10,0,10,0,,,,,,,,,,Listen to the question and speak out your answer!,318.21366810798645,None,318.1799286842346,320.213739156723,"Wenn genug Schnee liegt, fahren sie gerne Schi.",fahren,319.597084236145,None,322.8305294036865,None,334.7977323055267,None,336.2145001888275,None,./data/Subject_05/Session_02/Exp_data/2020_Aug_17_1119/rec_QA_run_00_block_001_trial_010.wav,05,02,Norwegian,A2,True,False,True,False,False,False,False,False,True,False,True,True,No,0,No,1,No,No,2020_Aug_17_1119,nibs_stage_1,3.2.3,59.99628090070863,
0,0,0,0,1,0,1,0,11,0,11,0,,,,,,,,,,Listen to the question and speak out your answer!,339.2323491573334,None,339.2142488002777,341.23141598701477,Bananen wachsen auf Palmen.,wachsen,340.6147024154663,None,343.04817337989806,None,355.79874939918517,None,357.21549701690674,None,./data/Subject_05/Session_02/Exp_data/2020_Aug_17_1119/rec_QA_run_00_block_001_trial_011.wav,05,02,Norwegian,A2,True,False,True,False,False,False,False,False,True,False,True,True,No,0,No,1,No,No,2020_Aug_17_1119,nibs_stage_1,3.2.3,59.99628090070863,
0,0,0,0,1,0,1,0,12,0,12,0,,,,,,,,,,Listen to the question and speak out your answer!,360.2824020385742,None,360.24857273101804,362.28239917755127,"Die U-Bahn ist gerade kaputt, also muss ich aussteigen. ",aussteigen,361.66570324897765,None,365.43257422447203,None,376.8664342880249,None,378.2831871509552,None,./data/Subject_05/Session_02/Exp_data/2020_Aug_17_1119/rec_QA_run_00_block_001_trial_012.wav,05,02,Norwegian,A2,True,False,True,False,False,False,False,False,True,False,True,True,No,0,No,1,No,No,2020_Aug_17_1119,nibs_stage_1,3.2.3,59.99628090070863,
0,0,0,0,1,0,1,0,13,0,13,0,,,,,,,,,,Listen to the question and speak out your answer!,381.3166620731354,None,381.2829047679901,383.31674313545227,Bitte zahlen Sie an Kasse Nummer Zwei.,zahlen,382.70004529953,385.21683502197266,385.60023040771483,386.6168999671936,397.9007613182068,398.91749715805054,399.3175160884857,None,./data/Subject_05/Session_02/Exp_data/2020_Aug_17_1119/rec_QA_run_00_block_001_trial_013.wav,05,02,Norwegian,A2,True,False,True,False,False,False,False,False,True,False,True,True,No,0,No,1,No,No,2020_Aug_17_1119,nibs_stage_1,3.2.3,59.99628090070863,
0,0,0,0,1,0,1,0,14,0,14,0,,,,,,,,,,Listen to the question and speak out your answer!,402.35188913345337,None,402.33393607139584,404.35099601745605,"Nachdem ich nicht da war, kann ich nichts dazu sagen.",sagen,403.7010492801666,None,407.13456840515136,None,418.9018232345581,None,420.31852412223816,None,./data/Subject_05/Session_02/Exp_data/2020_Aug_17_1119/rec_QA_run_00_block_001_trial_014.wav,05,02,Norwegian,A2,True,False,True,False,False,False,False,False,True,False,True,True,No,0,No,1,No,No,2020_Aug_17_1119,nibs_stage_1,3.2.3,59.99628090070863,
0,0,0,0,1,0,1,0,15,0,15,0,,,,,,,,,,Listen to the question and speak out your answer!,423.3854160308838,None,423.3516098499298,425.38551115989685,Wie lange muss Pat heute im Firma noch arbeiten?,arbeiten,424.76880140304564,None,427.9356433868408,428.95232009887695,439.9694993019104,440.9861841201782,441.38623213768005,None,./data/Subject_05/Session_02/Exp_data/2020_Aug_17_1119/rec_QA_run_00_block_001_trial_015.wav,05,02,Norwegian,A2,True,False,True,False,False,False,False,False,True,False,True,True,No,0,No,1,No,No,2020_Aug_17_1119,nibs_stage_1,3.2.3,59.99628090070863,
0,0,0,0,1,0,1,0,16,0,16,0,,,,,,,,,,Listen to the question and speak out your answer!,444.4204001426697,None,444.40261707305905,446.42000699043274,"Es freut mich sehr, Sie kennenzulernen.",freut,445.80309028625487,None,448.66989822387694,449.68661308288574,461.00372834205626,462.0205760002136,462.4206111431122,None,./data/Subject_05/Session_02/Exp_data/2020_Aug_17_1119/rec_QA_run_00_block_001_trial_016.wav,05,02,Norwegian,A2,True,False,True,False,False,False,False,False,True,False,True,True,No,0,No,1,No,No,2020_Aug_17_1119,nibs_stage_1,3.2.3,59.99628090070863,
0,0,0,0,1,0,1,0,17,0,17,0,,,,,,,,,,Listen to the question and speak out your answer!,465.4541370868683,None,465.4369739055633,467.4541401863098,Er hängte seine Jacke über die Lehne des Stuhls.,hängte,466.8374464035034,469.7875859737396,470.171036195755,471.1876549720764,482.03817839622496,None,483.4548909664154,None,./data/Subject_05/Session_02/Exp_data/2020_Aug_17_1119/rec_QA_run_00_block_001_trial_017.wav,05,02,Norwegian,A2,True,False,True,False,False,False,False,False,True,False,True,True,No,0,No,1,No,No,2020_Aug_17_1119,nibs_stage_1,3.2.3,59.99628090070863,
0,0,0,0,1,0,1,0,18,0,18,0,,,,,,,,,,Listen to the question and speak out your answer!,486.4896750450134,None,486.47125492095944,488.48851013183594,Brot kann man in der Bäckerei kaufen.,kaufen,487.871715259552,None,490.4386062145233,None,503.0725662231445,None,504.4893009662628,None,./data/Subject_05/Session_02/Exp_data/2020_Aug_17_1119/rec_QA_run_00_block_001_trial_018.wav,05,02,Norwegian,A2,True,False,True,False,False,False,False,False,True,False,True,True,No,0,No,1,No,No,2020_Aug_17_1119,nibs_stage_1,3.2.3,59.99628090070863,
0,0,0,0,1,0,1,0,19,0,19,0,,,,,,,,,,Listen to the question and speak out your answer!,507.5565710067749,None,507.5392220973968,509.55620217323303,"Ja, das Wasser aus der Leitung kann man trinken.",trinken,508.93949122428893,None,512.239564371109,None,524.1402322769165,None,525.5571250915527,None,./data/Subject_05/Session_02/Exp_data/2020_Aug_17_1119/rec_QA_run_00_block_001_trial_019.wav,05,02,Norwegian,A2,True,False,True,False,False,False,False,False,True,False,True,True,No,0,No,1,No,No,2020_Aug_17_1119,nibs_stage_1,3.2.3,59.99628090070863,
0,0,0,0,1,0,1,0,20,0,20,0,,,,,,,,,,Listen to the question and speak out your answer!,528.6256821155548,None,528.6067329406739,530.6239080429077,Die Tulpen stammen eigentlich aus Persien und der Türkei.,stammen,530.0072173595429,533.5241570472717,533.9073962688446,None,545.2079662799836,None,546.624626159668,None,./data/Subject_05/Session_02/Exp_data/2020_Aug_17_1119/rec_QA_run_00_block_001_trial_020.wav,05,02,Norwegian,A2,True,False,True,False,False,False,False,False,True,False,True,True,No,0,No,1,No,No,2020_Aug_17_1119,nibs_stage_1,3.2.3,59.99628090070863,
0,0,0,0,1,0,1,0,21,0,21,0,,,,,,,,,,Listen to the question and speak out your answer!,549.6924741268158,None,549.6744469165802,551.691642999649,Darf ich mit einem Scheck bezahlen?,bezahlen,551.0749012947083,None,553.3416792869568,None,566.2756623744965,None,567.6924450397491,None,./data/Subject_05/Session_02/Exp_data/2020_Aug_17_1119/rec_QA_run_00_block_001_trial_021.wav,05,02,Norwegian,A2,True,False,True,False,False,False,False,False,True,False,True,True,No,0,No,1,No,No,2020_Aug_17_1119,nibs_stage_1,3.2.3,59.99628090070863,
0,0,0,0,1,0,1,0,22,0,22,0,,,,,,,,,,Listen to the question and speak out your answer!,570.7592370510101,None,570.7254077434541,572.7593100070953,"Ich möchte einen weiteren Test durchführen, um die Ergebnisse zu prüfen.",prüfen,572.1425773620606,None,576.876203250885,None,587.3433372497559,None,588.7601301670074,None,./data/Subject_05/Session_02/Exp_data/2020_Aug_17_1119/rec_QA_run_00_block_001_trial_022.wav,05,02,Norwegian,A2,True,False,True,False,False,False,False,False,True,False,True,True,No,0,No,1,No,No,2020_Aug_17_1119,nibs_stage_1,3.2.3,59.99628090070863,
0,0,0,0,1,0,1,0,23,0,23,0,,,,,,,,,,Listen to the question and speak out your answer!,591.8103361129761,None,591.7767649650574,593.8103699684143,Morgen machen wir einen Ausflug in den Schönbrunner Tiergarten.,machen,593.19369430542,None,597.2271992683411,598.2438871860504,608.3944131851197,None,609.811182975769,None,./data/Subject_05/Session_02/Exp_data/2020_Aug_17_1119/rec_QA_run_00_block_001_trial_023.wav,05,02,Norwegian,A2,True,False,True,False,False,False,False,False,True,False,True,True,No,0,No,1,No,No,2020_Aug_17_1119,nibs_stage_1,3.2.3,59.99628090070863,
0,0,0,0,1,0,1,0,24,0,24,0,,,,,,,,,,Listen to the question and speak out your answer!,612.8446390628815,None,612.8109447002412,614.8448531627655,Ich bekomme ein Gehalt und Nebenleistungen.,bekomme,614.2280222892762,None,617.2615282058716,618.2782511711121,629.4287092208863,None,630.8455591201782,None,./data/Subject_05/Session_02/Exp_data/2020_Aug_17_1119/rec_QA_run_00_block_001_trial_024.wav,05,02,Norwegian,A2,True,False,True,False,False,False,False,False,True,False,True,True,No,0,No,1,No,No,2020_Aug_17_1119,nibs_stage_1,3.2.3,59.99628090070863,
0,0,0,0,1,0,1,0,,,,,,,,,,,,,,,,,,,,,,,,,,,,,,05,02,Norwegian,A2,True,False,True,False,False,False,False,False,True,False,True,True,No,0,No,1,No,No,2020_Aug_17_1119,nibs_stage_1,3.2.3,59.99628090070863,
0,0,0,0,,,,,,,,,,,,,,,,,,,,,,,,,,,,,,,,,,05,02,Norwegian,A2,True,False,True,False,False,False,False,False,True,False,True,True,No,0,No,1,No,No,2020_Aug_17_1119,nibs_stage_1,3.2.3,59.99628090070863,
