run.thisRepN,run.thisTrialN,run.thisN,run.thisIndex,QA_block.thisRepN,QA_block.thisTrialN,QA_block.thisN,QA_block.thisIndex,QA_trial.thisRepN,QA_trial.thisTrialN,QA_trial.thisN,QA_trial.thisIndex,fade_in_text.text,fade_in_text.started,fade_in_text.stopped,RS_intro_title.started,RS_intro_title.stopped,RS_intro_text.text,RS_intro_text.started,RS_intro_text.stopped,RS_intro_audio.started,RS_intro_audio.stopped,RS_rec_text.text,RS_rec_text.started,RS_rec_text.stopped,Pause_cont.started,Pause_cont.stopped,QA_intro_title.started,QA_intro_title.stopped,QA_intro_text.text,QA_intro_text.started,QA_intro_text.stopped,QA_intro_audio.started,QA_intro_audio.stopped,QA_intro_cont.started,QA_intro_cont.stopped,QA_rec_text.text,QA_rec_text.started,QA_rec_text.stopped,QA_rec_beep_hint.started,QA_rec_beep_hint.stopped,QA_rec_question.sen_text,QA_rec_question.cen_text,QA_rec_question.started,QA_rec_question.stopped,QA_rec_beep_start.started,QA_rec_beep_start.stopped,QA_rec_beep_end.started,QA_rec_beep_end.stopped,QA_rec_break.started,QA_rec_break.stopped,filename,participant,session,First language,German level,Full_screen,Instruction,Intro,Artifact,Cali_pre,Fade_in_out,Artifact_within,Resting_State,QA,Pause,Cali_post,End,Breakpoint_Cali_pre_trial,Breakpoint_Run,Breakpoint_RS_block,Breakpoint_QA_block,Breakpoint_QA_trial,Breakpoint_Cali_post_trial,date,expName,psychopyVersion,frameRate,
1,0,1,0,0,0,0,0,0,0,0,0,Please remain seated until further instruction via the earphone.,88.71153616905212,None,299.1395411491394,None," - Task: Keep seated and relaxed with either      
             opening or closing eyes                  
 - Beep sound with decreasing pitch: Block finish 
",299.1395411491394,None,299.12365145683293,None,"Please keep relaxed and close your eyes.
",322.1903591156006,502.2327461242676,505.63304114341736,None,519.7672791481018,None," - Task: Listen to the question& Speak out answer 
 - Melodious beep sound: Trial start              
 - Silent sound (blank): censored word            
 - Beep sound with increasing pitch: Rec. start   
 - Beep sound with decreasing pitch: Rec. finish  
",519.7672791481018,None,519.7523280143738,None,559.1857340335846,None,Listen to the question and speak out your answer!,562.2695441246033,None,562.2546526432037,564.302649974823,In der Pause werden kleine Brötchen serviert.,serviert,563.6526359081269,566.502767086029,566.88630900383,None,578.8534580230713,579.8700439929962,580.2701561450958,None,./data/Subject_05/Session_02/Exp_data/2020_Aug_17_1130/rec_QA_run_01_block_000_trial_000.wav,05,02,Norwegian,A2,True,False,True,False,False,True,True,True,True,True,True,True,No,1,No,No,No,No,2020_Aug_17_1130,nibs_stage_1,3.2.3,59.993792222541664,
1,0,1,0,0,0,0,0,1,0,1,0,,,,,,,,,,,,,,,,,,,,,,,,,Listen to the question and speak out your answer!,583.3542699813843,None,583.3217144489289,585.353667974472,Die Ärztin hat Andrea ein Rezept ausgestellt.,ausgestellt,584.737069940567,587.7877380847931,588.170564031601,None,599.9378949165344,None,601.3546741008759,None,./data/Subject_05/Session_02/Exp_data/2020_Aug_17_1130/rec_QA_run_01_block_000_trial_001.wav,05,02,Norwegian,A2,True,False,True,False,False,True,True,True,True,True,True,True,No,1,No,No,No,No,2020_Aug_17_1130,nibs_stage_1,3.2.3,59.993792222541664,
1,0,1,0,0,0,0,0,2,0,2,0,,,,,,,,,,,,,,,,,,,,,,,,,Listen to the question and speak out your answer!,604.3883910179138,None,604.3727753639222,606.4215490818024,Lisa kann schon mit großen Zahlen rechnen.,rechnen,605.7714789867401,None,608.8049810886383,609.8218681812286,620.9556339740753,None,622.372349023819,None,./data/Subject_05/Session_02/Exp_data/2020_Aug_17_1130/rec_QA_run_01_block_000_trial_002.wav,05,02,Norwegian,A2,True,False,True,False,False,True,True,True,True,True,True,True,No,1,No,No,No,No,2020_Aug_17_1130,nibs_stage_1,3.2.3,59.993792222541664,
1,0,1,0,0,0,0,0,3,0,3,0,,,,,,,,,,,,,,,,,,,,,,,,,Listen to the question and speak out your answer!,625.4392721652985,None,625.4072305679322,627.4392781257629,"Die Schneiderin änderte das Kleid, weil das Kleid zu groß ist.",änderte,626.822589969635,630.7727980613708,631.1561609268189,None,642.0233689308167,None,643.4401531219482,None,./data/Subject_05/Session_02/Exp_data/2020_Aug_17_1130/rec_QA_run_01_block_000_trial_003.wav,05,02,Norwegian,A2,True,False,True,False,False,True,True,True,True,True,True,True,No,1,No,No,No,No,2020_Aug_17_1130,nibs_stage_1,3.2.3,59.993792222541664,
1,0,1,0,0,0,0,0,4,0,4,0,,,,,,,,,,,,,,,,,,,,,,,,,Listen to the question and speak out your answer!,646.4737660884857,None,646.4585273742676,648.5070450305939,"Wir hoffen, dass die Verhandlungen zu einem erfolgreichen Abschluss kommen.",hoffen,647.8571630477906,None,652.3572610378266,None,663.0579050540924,None,664.4746460914612,None,./data/Subject_05/Session_02/Exp_data/2020_Aug_17_1130/rec_QA_run_01_block_000_trial_004.wav,05,02,Norwegian,A2,True,False,True,False,False,True,True,True,True,True,True,True,No,1,No,No,No,No,2020_Aug_17_1130,nibs_stage_1,3.2.3,59.993792222541664,
1,0,1,0,0,0,0,0,5,0,5,0,,,,,,,,,,,,,,,,,,,,,,,,,Listen to the question and speak out your answer!,667.5420231819153,None,667.5262635231019,669.5749070644379,Diese Speise schmeckt sauer.,schmeckt,668.9249869346619,None,671.324997997284,None,684.1256309509278,None,685.542414188385,None,./data/Subject_05/Session_02/Exp_data/2020_Aug_17_1130/rec_QA_run_01_block_000_trial_005.wav,05,02,Norwegian,A2,True,False,True,False,False,True,True,True,True,True,True,True,No,1,No,No,No,No,2020_Aug_17_1130,nibs_stage_1,3.2.3,59.993792222541664,
1,0,1,0,0,0,0,0,6,0,6,0,,,,,,,,,,,,,,,,,,,,,,,,,Listen to the question and speak out your answer!,688.5763540267944,None,688.5606096744538,690.6093180179596,Während einer Trocken-Zeit regnet es sehr selten.,regnet,689.9593199253083,None,693.2594688892365,None,705.1601179599762,None,706.5767431259155,None,./data/Subject_05/Session_02/Exp_data/2020_Aug_17_1130/rec_QA_run_01_block_000_trial_006.wav,05,02,Norwegian,A2,True,False,True,False,False,True,True,True,True,True,True,True,No,1,No,No,No,No,2020_Aug_17_1130,nibs_stage_1,3.2.3,59.993792222541664,
1,0,1,0,0,0,0,0,7,0,7,0,,,,,,,,,,,,,,,,,,,,,,,,,Listen to the question and speak out your answer!,709.6437439918518,None,709.6283014297486,711.6770009994507,"Nachdem er nach dem Flugzeugunglück gerettet wurde, hat er an Gott geglaubt.",geglaubt,711.0269990921021,None,715.8272460460663,None,726.2278030872345,727.2444980144501,727.6446390151978,None,./data/Subject_05/Session_02/Exp_data/2020_Aug_17_1130/rec_QA_run_01_block_000_trial_007.wav,05,02,Norwegian,A2,True,False,True,False,False,True,True,True,True,True,True,True,No,1,No,No,No,No,2020_Aug_17_1130,nibs_stage_1,3.2.3,59.993792222541664,
1,0,1,0,0,0,0,0,8,0,8,0,,,,,,,,,,,,,,,,,,,,,,,,,Listen to the question and speak out your answer!,730.6950070858002,None,730.6794135093689,732.7281181812286,Er hat Kartoffeln mit der Schale gekocht.,gekocht,732.0781970977783,734.4948999881744,734.8782979011536,None,747.2788749694824,748.2955791950226,748.6956071853638,None,./data/Subject_05/Session_02/Exp_data/2020_Aug_17_1130/rec_QA_run_01_block_000_trial_008.wav,05,02,Norwegian,A2,True,False,True,False,False,True,True,True,True,True,True,True,No,1,No,No,No,No,2020_Aug_17_1130,nibs_stage_1,3.2.3,59.993792222541664,
1,0,1,0,0,0,0,0,9,0,9,0,,,,,,,,,,,,,,,,,,,,,,,,,Listen to the question and speak out your answer!,751.7469551563263,None,751.7304875373841,753.7792131900787,"Wenn es am Sonntag Morgen regnet, bleibt Franz den ganzen Tag im Bett.",bleibt,753.1293629169464,757.2794079780579,757.6627639293671,None,768.3300009727478,None,769.7467579841614,None,./data/Subject_05/Session_02/Exp_data/2020_Aug_17_1130/rec_QA_run_01_block_000_trial_009.wav,05,02,Norwegian,A2,True,False,True,False,False,True,True,True,True,True,True,True,No,1,No,No,No,No,2020_Aug_17_1130,nibs_stage_1,3.2.3,59.993792222541664,
1,0,1,0,0,0,0,0,10,0,10,0,,,,,,,,,,,,,,,,,,,,,,,,,Listen to the question and speak out your answer!,772.8140821456909,None,772.7816025733948,774.8136610984802,"Das Thema interessierte sie, daher hörte sie genau zu.",interessierte,774.1969679355622,None,778.2638469696045,None,789.397770023346,None,790.8144941329956,None,./data/Subject_05/Session_02/Exp_data/2020_Aug_17_1130/rec_QA_run_01_block_000_trial_010.wav,05,02,Norwegian,A2,True,False,True,False,False,True,True,True,True,True,True,True,No,1,No,No,No,No,2020_Aug_17_1130,nibs_stage_1,3.2.3,59.993792222541664,
1,0,1,0,0,0,0,0,11,0,11,0,,,,,,,,,,,,,,,,,,,,,,,,,Listen to the question and speak out your answer!,793.8480880260468,None,793.8160354614258,795.8481070995331,Paul hat zum Abendessen Kartoffelsuppe gegessen.,gegessen,795.2314649581909,798.2483410835266,798.6315980911255,None,810.4156280517578,None,811.8322541713715,None,./data/Subject_05/Session_02/Exp_data/2020_Aug_17_1130/rec_QA_run_01_block_000_trial_011.wav,05,02,Norwegian,A2,True,False,True,False,False,True,True,True,True,True,True,True,No,1,No,No,No,No,2020_Aug_17_1130,nibs_stage_1,3.2.3,59.993792222541664,
1,0,1,0,0,0,0,0,12,0,12,0,,,,,,,,,,,,,,,,,,,,,,,,,Listen to the question and speak out your answer!,814.8997530937195,None,814.8671545505524,816.8991920948029,"Da der Koffer bereits zu schwer ist, muss ich leichte Kleidung einpacken.",einpacken,816.2825609207154,None,820.7494109630585,None,831.4832969665528,None,832.9000260829926,None,./data/Subject_05/Session_02/Exp_data/2020_Aug_17_1130/rec_QA_run_01_block_000_trial_012.wav,05,02,Norwegian,A2,True,False,True,False,False,True,True,True,True,True,True,True,No,1,No,No,No,No,2020_Aug_17_1130,nibs_stage_1,3.2.3,59.993792222541664,
1,0,1,0,0,0,0,0,13,0,13,0,,,,,,,,,,,,,,,,,,,,,,,,,Listen to the question and speak out your answer!,835.917277097702,None,835.9015886306763,837.9503111839294,"Er kann sie nicht hören, weil sie zu leise spricht.",hören,837.3002820968628,None,840.6004460811615,None,852.501093006134,None,853.9178221225739,None,./data/Subject_05/Session_02/Exp_data/2020_Aug_17_1130/rec_QA_run_01_block_000_trial_013.wav,05,02,Norwegian,A2,True,False,True,False,False,True,True,True,True,True,True,True,No,1,No,No,No,No,2020_Aug_17_1130,nibs_stage_1,3.2.3,59.993792222541664,
1,0,1,0,0,0,0,0,14,0,14,0,,,,,,,,,,,,,,,,,,,,,,,,,Listen to the question and speak out your answer!,856.9686131477356,None,856.9527544498444,859.0014081001282,Du muss deine schmutzige Kleidung in der Wäscherei waschen.,waschen,858.3514081001282,None,861.8849009037018,862.9016029834747,873.5522099494934,None,874.9688901901245,None,./data/Subject_05/Session_02/Exp_data/2020_Aug_17_1130/rec_QA_run_01_block_000_trial_014.wav,05,02,Norwegian,A2,True,False,True,False,False,True,True,True,True,True,True,True,No,1,No,No,No,No,2020_Aug_17_1130,nibs_stage_1,3.2.3,59.993792222541664,
1,0,1,0,0,0,0,0,15,0,15,0,,,,,,,,,,,,,,,,,,,,,,,,,Listen to the question and speak out your answer!,878.0360150337219,None,878.0037836551667,880.0359470844269,"Wenn Sie mit diesem Produkt nicht zufrieden sind, können wir eine Alternative anbieten.",anbieten,879.4191449642182,None,884.7194360256195,None,894.6199410915375,None,896.036737203598,None,./data/Subject_05/Session_02/Exp_data/2020_Aug_17_1130/rec_QA_run_01_block_000_trial_015.wav,05,02,Norwegian,A2,True,False,True,False,False,True,True,True,True,True,True,True,No,1,No,No,No,No,2020_Aug_17_1130,nibs_stage_1,3.2.3,59.993792222541664,
1,0,1,0,0,0,0,0,16,0,16,0,,,,,,,,,,,,,,,,,,,,,,,,,Listen to the question and speak out your answer!,899.0701851844788,None,899.038158607483,901.0702750682831,Mani ist ins Kino gegangen und hat sich einen guten Film angesehen.,angesehen,900.4535890579224,None,905.0204919338227,None,915.6544080734253,None,917.0711131095886,None,./data/Subject_05/Session_02/Exp_data/2020_Aug_17_1130/rec_QA_run_01_block_000_trial_016.wav,05,02,Norwegian,A2,True,False,True,False,False,True,True,True,True,True,True,True,No,1,No,No,No,No,2020_Aug_17_1130,nibs_stage_1,3.2.3,59.993792222541664,
1,0,1,0,0,0,0,0,17,0,17,0,,,,,,,,,,,,,,,,,,,,,,,,,Listen to the question and speak out your answer!,920.104887008667,None,920.0726625442505,922.1047060489655,Ich habe mich schon oft über den schrecklichen Service beschwert.,beschwert,921.4880438804627,924.8385231494904,925.2218619346619,926.2385671138763,936.6888299942017,None,938.105565071106,None,./data/Subject_05/Session_02/Exp_data/2020_Aug_17_1130/rec_QA_run_01_block_000_trial_017.wav,05,02,Norwegian,A2,True,False,True,False,False,True,True,True,True,True,True,True,No,1,No,No,No,No,2020_Aug_17_1130,nibs_stage_1,3.2.3,59.993792222541664,
1,0,1,0,0,0,0,0,18,0,18,0,,,,,,,,,,,,,,,,,,,,,,,,,Listen to the question and speak out your answer!,941.156445980072,None,941.1237984180451,943.1558361053467,Sam glaubt an eine marxistische Weltanschauung.,glaubt,942.505809879303,None,945.8060000896454,None,957.706616973877,None,959.1233191490173,None,./data/Subject_05/Session_02/Exp_data/2020_Aug_17_1130/rec_QA_run_01_block_000_trial_018.wav,05,02,Norwegian,A2,True,False,True,False,False,True,True,True,True,True,True,True,No,1,No,No,No,No,2020_Aug_17_1130,nibs_stage_1,3.2.3,59.993792222541664,
1,0,1,0,0,0,0,0,19,0,19,0,,,,,,,,,,,,,,,,,,,,,,,,,Listen to the question and speak out your answer!,962.1902501583099,None,962.1582145214081,964.1902730464935,Meine Großtante starb letztes Jahr und wurde neben ihrem Mann begraben.,begraben,963.5735910892487,None,968.2404929161072,None,978.7743879318238,979.7910192012787,980.1911551952362,None,./data/Subject_05/Session_02/Exp_data/2020_Aug_17_1130/rec_QA_run_01_block_000_trial_019.wav,05,02,Norwegian,A2,True,False,True,False,False,True,True,True,True,True,True,True,No,1,No,No,No,No,2020_Aug_17_1130,nibs_stage_1,3.2.3,59.993792222541664,
1,0,1,0,0,0,0,0,20,0,20,0,,,,,,,,,,,,,,,,,,,,,,,,,Listen to the question and speak out your answer!,983.2580502033234,None,983.2259313106537,985.2581491470337,"Ich habe den schrecklichen Verdacht, dass Hans das Geld gestohlen hat.",gestohlen,984.6413539409638,988.5914661884308,988.9415949344635,None,999.8421619892121,None,1001.2589030265808,None,./data/Subject_05/Session_02/Exp_data/2020_Aug_17_1130/rec_QA_run_01_block_000_trial_020.wav,05,02,Norwegian,A2,True,False,True,False,False,True,True,True,True,True,True,True,No,1,No,No,No,No,2020_Aug_17_1130,nibs_stage_1,3.2.3,59.993792222541664,
1,0,1,0,0,0,0,0,21,0,21,0,,,,,,,,,,,,,,,,,,,,,,,,,Listen to the question and speak out your answer!,1004.2941160202026,None,1004.2771015644074,1006.32581615448,"Als das Spiel unentschieden endete, wurde es um zweimal 15 Minuten verlängert.",endete,1005.6424559116364,None,1011.1427489280701,1012.1595520973206,1020.843262052536,None,1022.2600200176239,None,./data/Subject_05/Session_02/Exp_data/2020_Aug_17_1130/rec_QA_run_01_block_000_trial_021.wav,05,02,Norwegian,A2,True,False,True,False,False,True,True,True,True,True,True,True,No,1,No,No,No,No,2020_Aug_17_1130,nibs_stage_1,3.2.3,59.993792222541664,
1,0,1,0,0,0,0,0,22,0,22,0,,,,,,,,,,,,,,,,,,,,,,,,,Listen to the question and speak out your answer!,1025.3269250392914,None,1025.2949075222016,1027.3268711566925,Die Kinder haben ihrer Mutter im Haushalt geholfen.,geholfen,1026.7102530956267,None,1029.9437330722808,None,1041.9110439777373,None,1043.3277821540833,None,./data/Subject_05/Session_02/Exp_data/2020_Aug_17_1130/rec_QA_run_01_block_000_trial_022.wav,05,02,Norwegian,A2,True,False,True,False,False,True,True,True,True,True,True,True,No,1,No,No,No,No,2020_Aug_17_1130,nibs_stage_1,3.2.3,59.993792222541664,
1,0,1,0,0,0,0,0,23,0,23,0,,,,,,,,,,,,,,,,,,,,,,,,,Listen to the question and speak out your answer!,1046.362760066986,None,1046.3293334960936,1048.3616621494293,Morgens stehe ich um kurz vor sieben Uhr auf.,stehe,1047.744679069519,1050.6948401927948,1051.078313922882,1052.0949251651764,1062.9454349040984,1063.9621360301971,1064.362193107605,None,./data/Subject_05/Session_02/Exp_data/2020_Aug_17_1130/rec_QA_run_01_block_000_trial_023.wav,05,02,Norwegian,A2,True,False,True,False,False,True,True,True,True,True,True,True,No,1,No,No,No,No,2020_Aug_17_1130,nibs_stage_1,3.2.3,59.993792222541664,
1,0,1,0,0,0,0,0,24,0,24,0,,,,,,,,,,,,,,,,,,,,,,,,,Listen to the question and speak out your answer!,1067.4629700183868,None,1067.4304231166839,1069.462422132492,Die kluge Gebäudekonstruktion kann das Haus vor Windschäden schützen.,schützen,1068.8123849391936,1072.9292480945587,1073.312611913681,None,1084.0131410121917,None,1085.4298930168152,None,./data/Subject_05/Session_02/Exp_data/2020_Aug_17_1130/rec_QA_run_01_block_000_trial_024.wav,05,02,Norwegian,A2,True,False,True,False,False,True,True,True,True,True,True,True,No,1,No,No,No,No,2020_Aug_17_1130,nibs_stage_1,3.2.3,59.993792222541664,
1,0,1,0,0,0,0,0,,,,,,,,,,,,,,,,,,1089.480080127716,None,,,,,,,,,,,,,,,,,,,,,,,,,,05,02,Norwegian,A2,True,False,True,False,False,True,True,True,True,True,True,True,No,1,No,No,No,No,2020_Aug_17_1130,nibs_stage_1,3.2.3,59.993792222541664,
1,0,1,0,1,0,1,0,0,0,0,0,,,,,,,,,,,,,,,,,,,,,,,,,Listen to the question and speak out your answer!,1135.2990431785583,None,1135.2677409172056,1137.2990880012512,Wir bestellten ein stück Hassnuss Kuchen zum Dessert.,bestellten,1136.6490601062774,None,1140.282583093643,None,1151.849871969223,None,1153.2665441036224,None,./data/Subject_05/Session_02/Exp_data/2020_Aug_17_1130/rec_QA_run_01_block_001_trial_000.wav,05,02,Norwegian,A2,True,False,True,False,False,True,True,True,True,True,True,True,No,1,No,No,No,No,2020_Aug_17_1130,nibs_stage_1,3.2.3,59.993792222541664,
1,0,1,0,1,0,1,0,1,0,1,0,,,,,,,,,,,,,,,,,,,,,,,,,Listen to the question and speak out your answer!,1156.3506791591644,None,1156.3182435512542,1158.3501341342926,Die Band beendete das Konzert unter großem Beifall.,beendete,1157.7001188755034,None,1161.4002989292144,None,1172.9175420761107,1173.9342470169067,1174.334307193756,None,./data/Subject_05/Session_02/Exp_data/2020_Aug_17_1130/rec_QA_run_01_block_001_trial_001.wav,05,02,Norwegian,A2,True,False,True,False,False,True,True,True,True,True,True,True,No,1,No,No,No,No,2020_Aug_17_1130,nibs_stage_1,3.2.3,59.993792222541664,
1,0,1,0,1,0,1,0,2,0,2,0,,,,,,,,,,,,,,,,,,,,,,,,,Listen to the question and speak out your answer!,1177.402193069458,None,1177.3858175754547,1179.434513092041,Einige Eltern haben ihren Töchtern rosa Kleider gekauft.,gekauft,1178.7845159530639,1182.3346691131592,1182.7181709766387,1183.7348141670227,1193.9852570056914,None,1195.402006149292,None,./data/Subject_05/Session_02/Exp_data/2020_Aug_17_1130/rec_QA_run_01_block_001_trial_002.wav,05,02,Norwegian,A2,True,False,True,False,False,True,True,True,True,True,True,True,No,1,No,No,No,No,2020_Aug_17_1130,nibs_stage_1,3.2.3,59.993792222541664,
1,0,1,0,1,0,1,0,3,0,3,0,,,,,,,,,,,,,,,,,,,,,,,,,Listen to the question and speak out your answer!,1198.4526569843292,None,1198.4202323436737,1200.452243089676,Der Amazon Kurier hat das Paket geliefert.,geliefert,1199.8023000717162,None,1203.0357290267943,1204.052416086197,1215.0030139446258,1216.0196621418,1216.419741153717,None,./data/Subject_05/Session_02/Exp_data/2020_Aug_17_1130/rec_QA_run_01_block_001_trial_003.wav,05,02,Norwegian,A2,True,False,True,False,False,True,True,True,True,True,True,True,No,1,No,No,No,No,2020_Aug_17_1130,nibs_stage_1,3.2.3,59.993792222541664,
1,0,1,0,1,0,1,0,4,0,4,0,,,,,,,,,,,,,,,,,,,,,,,,,Listen to the question and speak out your answer!,1219.5032861232758,None,1219.4712443828582,1221.5032901763916,"Eric ist ein guter Fahrer, obwohl er gerade erst seinen Führerschein gemacht hat.",gemacht,1220.853268957138,1225.7368710041046,1226.1201869010924,None,1236.0706799983977,None,1237.487401008606,None,./data/Subject_05/Session_02/Exp_data/2020_Aug_17_1130/rec_QA_run_01_block_001_trial_004.wav,05,02,Norwegian,A2,True,False,True,False,False,True,True,True,True,True,True,True,No,1,No,No,No,No,2020_Aug_17_1130,nibs_stage_1,3.2.3,59.993792222541664,
1,0,1,0,1,0,1,0,5,0,5,0,,,,,,,,,,,,,,,,,,,,,,,,,Listen to the question and speak out your answer!,1240.5714230537415,None,1240.539042520523,1242.5709881782532,Was bedeutet Pressefreiheit für dich?,bedeutet,1241.954311943054,1244.204400062561,1244.587926006317,None,1257.1550940036773,1258.1718142032623,1258.5718071460724,None,./data/Subject_05/Session_02/Exp_data/2020_Aug_17_1130/rec_QA_run_01_block_001_trial_005.wav,05,02,Norwegian,A2,True,False,True,False,False,True,True,True,True,True,True,True,No,1,No,No,No,No,2020_Aug_17_1130,nibs_stage_1,3.2.3,59.993792222541664,
1,0,1,0,1,0,1,0,6,0,6,0,,,,,,,,,,,,,,,,,,,,,,,,,Listen to the question and speak out your answer!,1261.6225700378418,None,1261.5900404930114,1263.621975183487,"Früh übt sich, wer ein Meister werden will.",werden,1262.9719449043273,1265.722174167633,1266.138866996765,None,1278.1728380680083,None,1279.58953499794,None,./data/Subject_05/Session_02/Exp_data/2020_Aug_17_1130/rec_QA_run_01_block_001_trial_006.wav,05,02,Norwegian,A2,True,False,True,False,False,True,True,True,True,True,True,True,No,1,No,No,No,No,2020_Aug_17_1130,nibs_stage_1,3.2.3,59.993792222541664,
1,0,1,0,1,0,1,0,7,0,7,0,,,,,,,,,,,,,,,,,,,,,,,,,Listen to the question and speak out your answer!,1282.6736459732056,None,1282.6410885334014,1284.67311501503,Peter sitzt den ganzen Tag am Computer.,sitzt,1284.023131942749,1286.9065570831299,1287.2899230480193,None,1299.2239640712737,1300.2405309677124,1300.6405820846558,None,./data/Subject_05/Session_02/Exp_data/2020_Aug_17_1130/rec_QA_run_01_block_001_trial_007.wav,05,02,Norwegian,A2,True,False,True,False,False,True,True,True,True,True,True,True,No,1,No,No,No,No,2020_Aug_17_1130,nibs_stage_1,3.2.3,59.993792222541664,
1,0,1,0,1,0,1,0,8,0,8,0,,,,,,,,,,,,,,,,,,,,,,,,,Listen to the question and speak out your answer!,1303.708458185196,None,1303.6921434879303,1305.740849018097,Ich gehe gerne alles in dem Geschäft um die Ecke einkaufen.,einkaufen,1305.0908308982848,1308.5410830974579,1308.92435798645,None,1320.2916050910949,1321.3087000846863,1321.708356142044,None,./data/Subject_05/Session_02/Exp_data/2020_Aug_17_1130/rec_QA_run_01_block_001_trial_008.wav,05,02,Norwegian,A2,True,False,True,False,False,True,True,True,True,True,True,True,No,1,No,No,No,No,2020_Aug_17_1130,nibs_stage_1,3.2.3,59.993792222541664,
1,0,1,0,1,0,1,0,9,0,9,0,,,,,,,,,,,,,,,,,,,,,,,,,Listen to the question and speak out your answer!,1324.7760140895844,None,1324.7598693847656,1326.8085780143738,Ich möchte einen Tisch für das Abendessen reservieren.,reservieren,1326.1585498809814,1329.3094520568848,1329.6920660495757,None,1341.3427630424499,None,1342.7593801021576,None,./data/Subject_05/Session_02/Exp_data/2020_Aug_17_1130/rec_QA_run_01_block_001_trial_009.wav,05,02,Norwegian,A2,True,False,True,False,False,True,True,True,True,True,True,True,No,1,No,No,No,No,2020_Aug_17_1130,nibs_stage_1,3.2.3,59.993792222541664,
1,0,1,0,1,0,1,0,10,0,10,0,,,,,,,,,,,,,,,,,,,,,,,,,Listen to the question and speak out your answer!,1345.8435020446777,None,1345.8111544132232,1347.8431100845337,Die Abgase der Benzinmotoren werden die Luft verschmutzen.,verschmutzen,1347.1929958820342,None,1351.1931429862975,1352.2098581790924,1362.393709039688,None,1363.8104400634766,None,./data/Subject_05/Session_02/Exp_data/2020_Aug_17_1130/rec_QA_run_01_block_001_trial_010.wav,05,02,Norwegian,A2,True,False,True,False,False,True,True,True,True,True,True,True,No,1,No,No,No,No,2020_Aug_17_1130,nibs_stage_1,3.2.3,59.993792222541664,
1,0,1,0,1,0,1,0,11,0,11,0,,,,,,,,,,,,,,,,,,,,,,,,,Listen to the question and speak out your answer!,1366.861242055893,None,1366.828643655777,1368.860692024231,"Wenn du dich in einer gefährlichen Situation befindest, rufe nach Hilfe.",rufe,1368.2106820106505,None,1373.11092004776,1374.1276280879974,1383.4113830089568,None,1384.8281600475311,None,./data/Subject_05/Session_02/Exp_data/2020_Aug_17_1130/rec_QA_run_01_block_001_trial_011.wav,05,02,Norwegian,A2,True,False,True,False,False,True,True,True,True,True,True,True,No,1,No,No,No,No,2020_Aug_17_1130,nibs_stage_1,3.2.3,59.993792222541664,
1,0,1,0,1,0,1,0,12,0,12,0,,,,,,,,,,,,,,,,,,,,,,,,,Listen to the question and speak out your answer!,1387.8968970775604,None,1387.8631884574888,1389.895101070404,"Der Klima Schutz soll verhindern, dass es auf der Erde immer wärmer wird.",verhindern,1389.2786139011382,None,1393.8119810581206,None,1404.4791918754577,None,1405.8959031105042,None,./data/Subject_05/Session_02/Exp_data/2020_Aug_17_1130/rec_QA_run_01_block_001_trial_012.wav,05,02,Norwegian,A2,True,False,True,False,False,True,True,True,True,True,True,True,No,1,No,No,No,No,2020_Aug_17_1130,nibs_stage_1,3.2.3,59.993792222541664,
1,0,1,0,1,0,1,0,13,0,13,0,,,,,,,,,,,,,,,,,,,,,,,,,Listen to the question and speak out your answer!,1408.9293491840363,None,1408.9142604351043,1410.9628510475159,"Hans arbeitet in einer Schule, er ist der Direktor.",arbeitet,1410.313001012802,1413.4962131977081,1413.8796640396117,None,1425.5135930538177,None,1426.9305040836334,None,./data/Subject_05/Session_02/Exp_data/2020_Aug_17_1130/rec_QA_run_01_block_001_trial_013.wav,05,02,Norwegian,A2,True,False,True,False,False,True,True,True,True,True,True,True,No,1,No,No,No,No,2020_Aug_17_1130,nibs_stage_1,3.2.3,59.993792222541664,
1,0,1,0,1,0,1,0,14,0,14,0,,,,,,,,,,,,,,,,,,,,,,,,,Listen to the question and speak out your answer!,1429.9980239868164,None,1429.9818704605102,1432.0304930210114,Ein Arzt behandelt kranke Leute in einer Praxis oder im Krankenhaus.,behandelt,1431.3806329727172,None,1436.180794095993,None,1446.58131608963,1447.5980281829834,1447.998053073883,None,./data/Subject_05/Session_02/Exp_data/2020_Aug_17_1130/rec_QA_run_01_block_001_trial_014.wav,05,02,Norwegian,A2,True,False,True,False,False,True,True,True,True,True,True,True,No,1,No,No,No,No,2020_Aug_17_1130,nibs_stage_1,3.2.3,59.993792222541664,
1,0,1,0,1,0,1,0,15,0,15,0,,,,,,,,,,,,,,,,,,,,,,,,,Listen to the question and speak out your answer!,1451.0817279815674,None,1451.0496044635772,1453.0818440914154,Der Baum hängt voller Früchte.,hängt,1452.4649930953979,1454.382241010666,1454.765067911148,None,1467.6657470226287,None,1469.0824320316315,None,./data/Subject_05/Session_02/Exp_data/2020_Aug_17_1130/rec_QA_run_01_block_001_trial_015.wav,05,02,Norwegian,A2,True,False,True,False,False,True,True,True,True,True,True,True,No,1,No,No,No,No,2020_Aug_17_1130,nibs_stage_1,3.2.3,59.993792222541664,
1,0,1,0,1,0,1,0,16,0,16,0,,,,,,,,,,,,,,,,,,,,,,,,,Listen to the question and speak out your answer!,1472.1167759895325,None,1472.1006734848022,1474.14937210083,"Es ist ratsam, auch das Urteil anderer zu hören.",hören,1473.4993649482726,None,1477.0328730106353,1478.0495929718018,1488.7001739501952,None,1490.1168720722198,None,./data/Subject_05/Session_02/Exp_data/2020_Aug_17_1130/rec_QA_run_01_block_001_trial_016.wav,05,02,Norwegian,A2,True,False,True,False,False,True,True,True,True,True,True,True,No,1,No,No,No,No,2020_Aug_17_1130,nibs_stage_1,3.2.3,59.993792222541664,
1,0,1,0,1,0,1,0,17,0,17,0,,,,,,,,,,,,,,,,,,,,,,,,,Listen to the question and speak out your answer!,1493.2009801864624,None,1493.1684315681457,1495.2003631591797,"Ich nehme lieber den Bus, da gibt es nicht so viele Haltestellen.",gibt,1494.583764886856,None,1498.9506660461425,None,1509.7845459938048,None,1511.2012960910797,None,./data/Subject_05/Session_02/Exp_data/2020_Aug_17_1130/rec_QA_run_01_block_001_trial_017.wav,05,02,Norwegian,A2,True,False,True,False,False,True,True,True,True,True,True,True,No,1,No,No,No,No,2020_Aug_17_1130,nibs_stage_1,3.2.3,59.993792222541664,
1,0,1,0,1,0,1,0,18,0,18,0,,,,,,,,,,,,,,,,,,,,,,,,,Listen to the question and speak out your answer!,1514.2518541812897,None,1514.236290359497,1516.2848839759827,Man bezahlt für den Naturschutz.,bezahlt,1515.6348680019378,1517.7182819843292,1518.1017158985137,None,1530.835601902008,None,1532.2523829936981,None,./data/Subject_05/Session_02/Exp_data/2020_Aug_17_1130/rec_QA_run_01_block_001_trial_018.wav,05,02,Norwegian,A2,True,False,True,False,False,True,True,True,True,True,True,True,No,1,No,No,No,No,2020_Aug_17_1130,nibs_stage_1,3.2.3,59.993792222541664,
1,0,1,0,1,0,1,0,19,0,19,0,,,,,,,,,,,,,,,,,,,,,,,,,Listen to the question and speak out your answer!,1535.3031470775604,None,1535.2705367565154,1537.3025941848755,Wir müssen die Kunden jeden Monat über ihren finanziellen Status informieren.,informieren,1536.6527811050414,None,1541.719558095932,None,1551.8533409595489,None,1553.270015001297,None,./data/Subject_05/Session_02/Exp_data/2020_Aug_17_1130/rec_QA_run_01_block_001_trial_019.wav,05,02,Norwegian,A2,True,False,True,False,False,True,True,True,True,True,True,True,No,1,No,No,No,No,2020_Aug_17_1130,nibs_stage_1,3.2.3,59.993792222541664,
1,0,1,0,1,0,1,0,20,0,20,0,,,,,,,,,,,,,,,,,,,,,,,,,Listen to the question and speak out your answer!,1556.3383781909943,None,1556.3216374397277,1558.3703429698944,"Sie hat den Newsletter abonniert, um weitere Informationen zu erhalten.",abonniert,1557.7203060150146,None,1562.4205769062041,None,1572.9211209774016,1573.9377219676971,1574.3378221988678,None,./data/Subject_05/Session_02/Exp_data/2020_Aug_17_1130/rec_QA_run_01_block_001_trial_020.wav,05,02,Norwegian,A2,True,False,True,False,False,True,True,True,True,True,True,True,No,1,No,No,No,No,2020_Aug_17_1130,nibs_stage_1,3.2.3,59.993792222541664,
1,0,1,0,1,0,1,0,21,0,21,0,,,,,,,,,,,,,,,,,,,,,,,,,Listen to the question and speak out your answer!,1577.4063529968262,None,1577.3727445125578,1579.4048640727997,Sie hat neue Laufschuhe bekommen.,bekommen,1578.7882030963897,None,1581.221521949768,1582.2383761405945,1593.9888430595397,None,1595.40558218956,None,./data/Subject_05/Session_02/Exp_data/2020_Aug_17_1130/rec_QA_run_01_block_001_trial_021.wav,05,02,Norwegian,A2,True,False,True,False,False,True,True,True,True,True,True,True,No,1,No,No,No,No,2020_Aug_17_1130,nibs_stage_1,3.2.3,59.993792222541664,
1,0,1,0,1,0,1,0,22,0,22,0,,,,,,,,,,,,,,,,,,,,,,,,,Listen to the question and speak out your answer!,1598.4562821388245,None,1598.4238164901733,1600.4558260440826,Die Universität hat meinen Studentenausweis ausgestellt.,ausgestellt,1599.8058029174804,None,1603.83939204216,1604.8560690879822,1615.0066278934478,1616.0233170986176,1616.4234709739685,None,./data/Subject_05/Session_02/Exp_data/2020_Aug_17_1130/rec_QA_run_01_block_001_trial_022.wav,05,02,Norwegian,A2,True,False,True,False,False,True,True,True,True,True,True,True,No,1,No,No,No,No,2020_Aug_17_1130,nibs_stage_1,3.2.3,59.993792222541664,
1,0,1,0,1,0,1,0,23,0,23,0,,,,,,,,,,,,,,,,,,,,,,,,,Listen to the question and speak out your answer!,1619.4902641773224,None,1619.4582545280455,1621.4902729988098,Ich kann nicht mit dem Auto fahren.,fahren,1620.8735760211944,None,1623.273700094223,1624.2903921604156,1636.0743599891662,1637.0910379886627,1637.491142988205,None,./data/Subject_05/Session_02/Exp_data/2020_Aug_17_1130/rec_QA_run_01_block_001_trial_023.wav,05,02,Norwegian,A2,True,False,True,False,False,True,True,True,True,True,True,True,No,1,No,No,No,No,2020_Aug_17_1130,nibs_stage_1,3.2.3,59.993792222541664,
1,0,1,0,1,0,1,0,24,0,24,0,,,,,,,,,,,,,,,,,,,,,,,,,Listen to the question and speak out your answer!,1640.5246551036835,None,1640.509317445755,1642.558009147644,Seit der Urzeit haben die Menschen an Götter geglaubt.,geglaubt,1641.9080399036407,None,1645.3415270805358,None,1657.1087809562682,None,1658.5254971981049,None,./data/Subject_05/Session_02/Exp_data/2020_Aug_17_1130/rec_QA_run_01_block_001_trial_024.wav,05,02,Norwegian,A2,True,False,True,False,False,True,True,True,True,True,True,True,No,1,No,No,No,No,2020_Aug_17_1130,nibs_stage_1,3.2.3,59.993792222541664,
