run.thisRepN,run.thisTrialN,run.thisN,run.thisIndex,artifact_trial.thisRepN,artifact_trial.thisTrialN,artifact_trial.thisN,artifact_trial.thisIndex,QA_block.thisRepN,QA_block.thisTrialN,QA_block.thisN,QA_block.thisIndex,QA_trial.thisRepN,QA_trial.thisTrialN,QA_trial.thisN,QA_trial.thisIndex,fade_in_text.text,fade_in_text.started,fade_in_text.stopped,Artifact_intro_title.started,Artifact_intro_title.stopped,Artifact_intro_text.text,Artifact_intro_text.started,Artifact_intro_text.stopped,Artifact_intro_audio.started,Artifact_intro_audio.stopped,Artifact_intro_cont.started,Artifact_intro_cont.stopped,Artifact_rec_text.text,Artifact_rec_text.started,Artifact_rec_text.stopped,Artifact_rec_beep_hint.started,Artifact_rec_beep_hint.stopped,Artifact_rec_action.started,Artifact_rec_action.stopped,Artifact_rec_beep_start.started,Artifact_rec_beep_start.stopped,Artifact_rec_recording.started,Artifact_rec_recording.stopped,Artifact_rec_beep_end.started,Artifact_rec_beep_end.stopped,Artifact_rec_break.started,Artifact_rec_break.stopped,RS_intro_title.started,RS_intro_title.stopped,RS_intro_text.text,RS_intro_text.started,RS_intro_text.stopped,RS_intro_audio.started,RS_intro_audio.stopped,RS_rec_text.text,RS_rec_text.started,RS_rec_text.stopped,Pause_cont.started,Pause_cont.stopped,QA_intro_title.started,QA_intro_title.stopped,QA_intro_text.text,QA_intro_text.started,QA_intro_text.stopped,QA_intro_audio.started,QA_intro_audio.stopped,QA_intro_cont.started,QA_intro_cont.stopped,QA_rec_text.text,QA_rec_text.started,QA_rec_text.stopped,QA_rec_beep_hint.started,QA_rec_beep_hint.stopped,QA_rec_question.sen_text,QA_rec_question.cen_text,QA_rec_question.started,QA_rec_question.stopped,QA_rec_beep_start.started,QA_rec_beep_start.stopped,QA_rec_beep_end.started,QA_rec_beep_end.stopped,QA_rec_break.started,QA_rec_break.stopped,filename,participant,session,First language,German level,Full_screen,Instruction,Intro,Artifact,Cali_pre,Fade_in_out,Artifact_within,Resting_State,QA,Pause,Cali_post,End,Breakpoint_Cali_pre_trial,Breakpoint_Run,Breakpoint_RS_block,Breakpoint_QA_block,Breakpoint_QA_trial,Breakpoint_Cali_post_trial,date,expName,psychopyVersion,frameRate,
2,0,2,0,0,0,0,0,,,,,,,,,Please remain seated until further instruction via the earphone.,56.2474410533905,None,58.28105092048645,None,"  - Task: Artifacts collection   
  - Please follow audio instruction              
",58.28105092048645,None,58.26407406330109,None,84.64890098571777,None,,86.68236184120178,None,86.66553399562835,88.66554999351501,88.06567142009735,None,91.46571729183196,None,92.86579535007476,102.86629700660706,103.26632425785064,None,104.6663269996643,105.66646695137024,,,,,,,,,,,,,,,,,,,,,,,,,,,,,,,,,,,,,,02,03,English,A2,True,False,True,False,False,True,True,True,True,True,True,True,No,2,No,No,No,No,2020_Aug_02_1235,nibs_stage_1,3.2.3,60.06510161207401,
2,0,2,0,1,0,1,0,,,,,,,,,,,,,,,,,,,,,,108.68396782875061,None,108.6831719636917,110.68360495567322,110.06691143512725,None,113.46702930927276,None,114.86696240901946,124.86747884750366,125.26751039028167,126.26754999160767,126.66756701469421,127.66753792762756,,,,,,,,,,,,,,,,,,,,,,,,,,,,,,,,,,,,,,02,03,English,A2,True,False,True,False,False,True,True,True,True,True,True,True,No,2,No,No,No,No,2020_Aug_02_1235,nibs_stage_1,3.2.3,60.06510161207401,
2,0,2,0,2,0,2,0,,,,,,,,,,,,,,,,,,,,,,130.7011170387268,130.7011170387268,130.68431494235992,132.68455386161804,132.08444426059722,None,135.4846982717514,None,136.8848583459854,146.88522481918335,147.285249209404,148.28539299964905,148.68540287017822,149.68546199798584,,,,,,,,,,,,,,,,,,,,,,,,,,,,,,,,,,,,,,02,03,English,A2,True,False,True,False,False,True,True,True,True,True,True,True,No,2,No,No,No,No,2020_Aug_02_1235,nibs_stage_1,3.2.3,60.06510161207401,
2,0,2,0,3,0,3,0,,,,,,,,,,,,,,,,,,,,,,152.7028248310089,None,152.70206305980682,154.70230197906494,154.08568642139434,None,157.4858743906021,None,158.8860482931137,168.88659000396729,169.28647825717925,170.2865560054779,170.68657994270325,171.6867549419403,,,,,,,,,,,,,,,,,,,,,,,,,,,,,,,,,,,,,,02,03,English,A2,True,False,True,False,False,True,True,True,True,True,True,True,No,2,No,No,No,No,2020_Aug_02_1235,nibs_stage_1,3.2.3,60.06510161207401,
2,0,2,0,4,0,4,0,,,,,,,,,,,,,,,,,,,,,,174.72019982337952,174.72019982337952,174.70327994823455,176.70354294776917,176.10363528728485,None,179.50369141101837,None,180.9037632703781,190.90420293807983,191.3042292356491,None,192.70437788963318,193.7044379711151,,,,,,,,,,,,,,,,,,,,,,,,,,,,,,,,,,,,,,02,03,English,A2,True,False,True,False,False,True,True,True,True,True,True,True,No,2,No,No,No,No,2020_Aug_02_1235,nibs_stage_1,3.2.3,60.06510161207401,
2,0,2,0,5,0,5,0,,,,,,,,,,,,,,,,,,,,,,196.7379858493805,None,196.7210390329361,198.72164487838745,198.10497424602508,None,201.505069231987,None,202.9051792383194,212.90567803382874,213.30568525791168,None,214.7062258720398,215.70567297935486,,,,,,,,,,,,,,,,,,,,,,,,,,,,,,,,,,,,,,02,03,English,A2,True,False,True,False,False,True,True,True,True,True,True,True,No,2,No,No,No,No,2020_Aug_02_1235,nibs_stage_1,3.2.3,60.06510161207401,
2,0,2,0,6,0,6,0,,,,,,,,,,,,,,,,,,,,,,218.7559208869934,None,218.73919603824615,220.7394618988037,220.1227402448654,None,223.5229882955551,None,224.92356321811675,234.92351293563843,235.32351920604705,None,236.72351384162903,237.72366786003113,,,,,,,,,,,,,,,,,,,,,,,,,,,,,,,,,,,,,,02,03,English,A2,True,False,True,False,False,True,True,True,True,True,True,True,No,2,No,No,No,No,2020_Aug_02_1235,nibs_stage_1,3.2.3,60.06510161207401,
2,0,2,0,7,0,7,0,,,,,,,,,,,,,,,,,,,,,,240.77375888824463,None,240.75700089931487,242.7574360370636,242.1405353307724,245.14071393013,245.54071733951568,None,246.94082329273223,256.9413230419159,257.34134743213656,None,258.74159002304077,259.74162888526917,,,,,,,,,,,,,,,,,,,,,,,,,,,,,,,,,,,,,,02,03,English,A2,True,False,True,False,False,True,True,True,True,True,True,True,No,2,No,No,No,No,2020_Aug_02_1235,nibs_stage_1,3.2.3,60.06510161207401,
2,0,2,0,8,0,8,0,,,,,,,,,,,,,,,,,,,,,,262.7917490005493,None,262.7748679876328,264.7750549316406,264.1583153963089,267.1584279537201,267.5584692716599,None,268.9585983514786,278.9591510295868,279.3591062784195,280.35926485061646,280.7592270374298,281.75950598716736,,,,,,,,,,,,,,,,,,,,,,,,,,,,,,,,,,,,,,02,03,English,A2,True,False,True,False,False,True,True,True,True,True,True,True,No,2,No,No,No,No,2020_Aug_02_1235,nibs_stage_1,3.2.3,60.06510161207401,
2,0,2,0,9,0,9,0,,,,,,,,,,,,,,,,,,,,,,284.8094518184662,None,284.79267785549166,286.7928738594055,286.17620131969454,289.17634892463684,289.5763902425766,None,290.9763474225998,300.9771008491516,301.37718031406405,None,302.77708196640015,303.7773189544678,,,,,,,,,,,,,,,,,,,,,,,,,,,,,,,,,,,,,,02,03,English,A2,True,False,True,False,False,True,True,True,True,True,True,True,No,2,No,No,No,No,2020_Aug_02_1235,nibs_stage_1,3.2.3,60.06510161207401,
2,0,2,0,10,0,10,0,,,,,,,,,,,,,,,,,,,,,,306.82719802856445,None,306.8104879617691,308.81071305274963,308.19402930736544,None,311.59447238445284,None,312.9945723772049,322.99548387527466,323.39483234882357,None,324.79520297050476,325.7951760292053,,,,,,,,,,,,,,,,,,,,,,,,,,,,,,,,,,,,,,02,03,English,A2,True,False,True,False,False,True,True,True,True,True,True,True,No,2,No,No,No,No,2020_Aug_02_1235,nibs_stage_1,3.2.3,60.06510161207401,
2,0,2,0,11,0,11,0,,,,,,,,,,,,,,,,,,,,,,328.8451290130615,None,328.82851884365084,330.8285369873047,330.21177027225497,None,333.61193535327914,None,335.0120832681656,345.0126190185547,345.4125642538071,346.41278290748596,346.81272196769714,347.8295328617096,,,,,,,,,,,,,,,,,,,,,,,,,,,,,,,,,,,,,,02,03,English,A2,True,False,True,False,False,True,True,True,True,True,True,True,No,2,No,No,No,No,2020_Aug_02_1235,nibs_stage_1,3.2.3,60.06510161207401,
2,0,2,0,12,0,12,0,,,,,,,,,,,,,,,,,,,,,,350.86290287971497,None,350.8461570501328,352.84636092185974,352.22991321086886,355.22985005378723,355.62984535694125,None,357.04649422168734,367.04723596572876,367.43056032657626,368.43052792549133,368.8305459022522,369.8309278488159,,,,,,,,,,,,,,,,,,,,,,,,,,,,,,,,,,,,,,02,03,English,A2,True,False,True,False,False,True,True,True,True,True,True,True,No,2,No,No,No,No,2020_Aug_02_1235,nibs_stage_1,3.2.3,60.06510161207401,
2,0,2,0,13,0,13,0,,,,,,,,,,,,,,,,,,,,,,372.880646944046,None,372.8640680074692,374.86423897743225,374.24761221408846,None,377.647736287117,None,379.04776022434237,389.04825091362,389.4482953310013,None,390.8483760356903,391.8486838340759,,,,,,,,,,,,,,,,,,,,,,,,,,,,,,,,,,,,,,02,03,English,A2,True,False,True,False,False,True,True,True,True,True,True,True,No,2,No,No,No,No,2020_Aug_02_1235,nibs_stage_1,3.2.3,60.06510161207401,
2,0,2,0,14,0,14,0,,,,,,,,,,,,,,,,,,,,,,394.8982608318329,None,394.8817648649216,396.8820250034332,396.2656824350357,None,399.66560027599337,None,401.06565139293673,411.0660619735718,411.46610233783724,412.46602988243103,412.8660559654236,413.86626982688904,,,,,,,,,,,,,,,,,,,,,,,,,,,,,,,,,,,,,,02,03,English,A2,True,False,True,False,False,True,True,True,True,True,True,True,No,2,No,No,No,No,2020_Aug_02_1235,nibs_stage_1,3.2.3,60.06510161207401,
2,0,2,0,,,,,0,0,0,0,0,0,0,0,,,,,,,,,,,,,,,,,,,,,,,,,,,,624.3439428806305,None," - Task: Keep seated and relaxed with either      
             opening or closing eyes                  
 - Beep sound with decreasing pitch: Block finish 
",624.3439428806305,None,624.3271944046021,None,"Please keep relaxed and open your eyes.
Note: Blinking is allowed.",647.3785648345947,827.3879988193512,830.75519490242,None,847.0891029834747,None," - Task: Listen to the question& Speak out answer 
 - Melodious beep sound: Trial start              
 - Silent sound (blank): censored word            
 - Beep sound with increasing pitch: Rec. start   
 - Beep sound with decreasing pitch: Rec. finish  
",847.0891029834747,None,847.0720121622086,None,886.4742829799652,None,Listen to the question and speak out your answer!,889.5412788391113,None,889.5242320775986,891.5246958732605,"Um die Prüfung zu bestehen, hat er viel gelernt.",gelernt,890.9245822191239,893.8581719398499,894.2749352216721,None,906.1087953805924,907.1088588237762,907.5091049671173,908.5089988708496,./data/Subject_02/Session_03/Exp_data/2020_Aug_02_1235/rec_QA_run_02_block_000_trial_000.wav,02,03,English,A2,True,False,True,False,False,True,True,True,True,True,True,True,No,2,No,No,No,No,2020_Aug_02_1235,nibs_stage_1,3.2.3,60.06510161207401,
2,0,2,0,,,,,0,0,0,0,1,0,1,0,,,,,,,,,,,,,,,,,,,,,,,,,,,,,,,,,,,,,,,,,,,,,,,,,Listen to the question and speak out your answer!,910.5930788516998,None,910.5755717039109,912.5758109092712,"Die Eisberge lösen sich auf, und der Wasserpegel steigt.",steigt,911.9591622114182,None,915.926088309288,916.9260759353638,927.1432313680649,None,928.5433149337769,929.5434069633484,./data/Subject_02/Session_03/Exp_data/2020_Aug_02_1235/rec_QA_run_02_block_000_trial_001.wav,02,03,English,A2,True,False,True,False,False,True,True,True,True,True,True,True,No,2,No,No,No,No,2020_Aug_02_1235,nibs_stage_1,3.2.3,60.06510161207401,
2,0,2,0,,,,,0,0,0,0,2,0,2,0,,,,,,,,,,,,,,,,,,,,,,,,,,,,,,,,,,,,,,,,,,,,,,,,,Listen to the question and speak out your answer!,931.6098709106445,None,931.5933613300324,933.5933890342712,Ich will nicht mein ganzes Geld für ein neues Auto ausgeben.,ausgeben,932.9932682275772,936.4767708778381,936.8767833471298,None,948.1941504240036,949.2108838558197,949.6109240055084,None,./data/Subject_02/Session_03/Exp_data/2020_Aug_02_1235/rec_QA_run_02_block_000_trial_002.wav,02,03,English,A2,True,False,True,False,False,True,True,True,True,True,True,True,No,2,No,No,No,No,2020_Aug_02_1235,nibs_stage_1,3.2.3,60.06510161207401,
2,0,2,0,,,,,0,0,0,0,3,0,3,0,,,,,,,,,,,,,,,,,,,,,,,,,,,,,,,,,,,,,,,,,,,,,,,,,Listen to the question and speak out your answer!,952.6450190544128,None,952.6275908708573,954.6444029808044,"Ist es für den Vermieter möglich, den Mieter nach der Rechtslage zu kündigen?",kündigen,954.0277802705765,958.3113498687744,958.6946952104569,None,969.228584265709,None,970.6453249454498,None,./data/Subject_02/Session_03/Exp_data/2020_Aug_02_1235/rec_QA_run_02_block_000_trial_003.wav,02,03,English,A2,True,False,True,False,False,True,True,True,True,True,True,True,No,2,No,No,No,No,2020_Aug_02_1235,nibs_stage_1,3.2.3,60.06510161207401,
2,0,2,0,,,,,0,0,0,0,4,0,4,0,,,,,,,,,,,,,,,,,,,,,,,,,,,,,,,,,,,,,,,,,,,,,,,,,Listen to the question and speak out your answer!,973.6954219341278,None,973.6786744117737,975.6956009864807,"Seine Freunde können seinen Worten nicht trauen, weil er immer lügt.",lügt,975.0789093732834,978.9626929759979,979.3457033395767,980.3625030517578,990.2797052621842,991.2964210510254,991.6964290142059,None,./data/Subject_02/Session_03/Exp_data/2020_Aug_02_1235/rec_QA_run_02_block_000_trial_004.wav,02,03,English,A2,True,False,True,False,False,True,True,True,True,True,True,True,No,2,No,No,No,No,2020_Aug_02_1235,nibs_stage_1,3.2.3,60.06510161207401,
2,0,2,0,,,,,0,0,0,0,5,0,5,0,,,,,,,,,,,,,,,,,,,,,,,,,,,,,,,,,,,,,,,,,,,,,,,,,Listen to the question and speak out your answer!,994.7301669120789,None,994.7131089925766,996.7300269603729,Jetzt will ich eine Vorstellung machen.,machen,996.1133482217789,None,998.6468603372574,None,1011.3141233682633,None,1012.7308449745178,None,./data/Subject_02/Session_03/Exp_data/2020_Aug_02_1235/rec_QA_run_02_block_000_trial_005.wav,02,03,English,A2,True,False,True,False,False,True,True,True,True,True,True,True,No,2,No,No,No,No,2020_Aug_02_1235,nibs_stage_1,3.2.3,60.06510161207401,
2,0,2,0,,,,,0,0,0,0,6,0,6,0,,,,,,,,,,,,,,,,,,,,,,,,,,,,,,,,,,,,,,,,,,,,,,,,,Listen to the question and speak out your answer!,1015.7978219985962,None,1015.7642552375794,1017.7978858947754,"Entschuldigung, können Sie mir ein Taxi rufen?",rufen,1017.181177353859,None,1020.3480152845383,None,1032.381980395317,None,1033.7987740039825,None,./data/Subject_02/Session_03/Exp_data/2020_Aug_02_1235/rec_QA_run_02_block_000_trial_006.wav,02,03,English,A2,True,False,True,False,False,True,True,True,True,True,True,True,No,2,No,No,No,No,2020_Aug_02_1235,nibs_stage_1,3.2.3,60.06510161207401,
2,0,2,0,,,,,0,0,0,0,7,0,7,0,,,,,,,,,,,,,,,,,,,,,,,,,,,,,,,,,,,,,,,,,,,,,,,,,Listen to the question and speak out your answer!,1036.8325090408325,None,1036.8154258012771,1038.8322949409485,Charles Darwin hat die Natur erforscht.,erforscht,1038.2156193017959,1040.6324770450592,1041.0157832860946,1042.0324840545654,1053.4164423704146,None,1054.8331859111786,None,./data/Subject_02/Session_03/Exp_data/2020_Aug_02_1235/rec_QA_run_02_block_000_trial_007.wav,02,03,English,A2,True,False,True,False,False,True,True,True,True,True,True,True,No,2,No,No,No,No,2020_Aug_02_1235,nibs_stage_1,3.2.3,60.06510161207401,
2,0,2,0,,,,,0,0,0,0,8,0,8,0,,,,,,,,,,,,,,,,,,,,,,,,,,,,,,,,,,,,,,,,,,,,,,,,,Listen to the question and speak out your answer!,1057.8500068187714,None,1057.8331882476805,1059.850107908249,Das Schloss liegt innerhalb der Stadtmauern.,liegt,1059.2334062814712,1061.6501169204712,1062.0335383176803,None,1074.434113240242,None,1075.8509349822998,None,./data/Subject_02/Session_03/Exp_data/2020_Aug_02_1235/rec_QA_run_02_block_000_trial_008.wav,02,03,English,A2,True,False,True,False,False,True,True,True,True,True,True,True,No,2,No,No,No,No,2020_Aug_02_1235,nibs_stage_1,3.2.3,60.06510161207401,
2,0,2,0,,,,,0,0,0,0,9,0,9,0,,,,,,,,,,,,,,,,,,,,,,,,,,,,,,,,,,,,,,,,,,,,,,,,,Listen to the question and speak out your answer!,1078.884605884552,None,1078.867595887184,1080.8844559192657,Alexander Bell hat das Telefon erfunden.,erfunden,1080.2677652597426,None,1083.3679253816604,1084.3846428394318,1095.4685554265975,1096.4853370189667,1096.8853089809418,None,./data/Subject_02/Session_03/Exp_data/2020_Aug_02_1235/rec_QA_run_02_block_000_trial_009.wav,02,03,English,A2,True,False,True,False,False,True,True,True,True,True,True,True,No,2,No,No,No,No,2020_Aug_02_1235,nibs_stage_1,3.2.3,60.06510161207401,
2,0,2,0,,,,,0,0,0,0,10,0,10,0,,,,,,,,,,,,,,,,,,,,,,,,,,,,,,,,,,,,,,,,,,,,,,,,,Listen to the question and speak out your answer!,1099.936378955841,None,1099.9187092304228,1101.9355609416962,"Jede nennt sie Nini, aber ihr wirklicher Name ist Martina.",nennt,1101.3188674211501,None,1105.585756278038,None,1116.5195853471755,None,1117.9364149570465,None,./data/Subject_02/Session_03/Exp_data/2020_Aug_02_1235/rec_QA_run_02_block_000_trial_010.wav,02,03,English,A2,True,False,True,False,False,True,True,True,True,True,True,True,No,2,No,No,No,No,2020_Aug_02_1235,nibs_stage_1,3.2.3,60.06510161207401,
2,0,2,0,,,,,0,0,0,0,11,0,11,0,,,,,,,,,,,,,,,,,,,,,,,,,,,,,,,,,,,,,,,,,,,,,,,,,Listen to the question and speak out your answer!,1121.003250837326,None,1120.9697613239287,1123.0033268928528,Ich lese gerne ein Buch vor dem Schlafengehen.,lese,1122.3866212129592,1125.1367900371552,1125.520149207115,None,1137.5874473810195,None,1139.004184961319,None,./data/Subject_02/Session_03/Exp_data/2020_Aug_02_1235/rec_QA_run_02_block_000_trial_011.wav,02,03,English,A2,True,False,True,False,False,True,True,True,True,True,True,True,No,2,No,No,No,No,2020_Aug_02_1235,nibs_stage_1,3.2.3,60.06510161207401,
2,0,2,0,,,,,0,0,0,0,12,0,12,0,,,,,,,,,,,,,,,,,,,,,,,,,,,,,,,,,,,,,,,,,,,,,,,,,Listen to the question and speak out your answer!,1142.021667957306,None,1142.0042593002318,1144.0211169719696,Wir müssen uns beeilen oder wir verpassen unseren Zug.,beeilen,1143.4044444322585,1146.7545959949493,1147.1379444360732,None,1158.6052143335341,None,1160.0219359397888,None,./data/Subject_02/Session_03/Exp_data/2020_Aug_02_1235/rec_QA_run_02_block_000_trial_012.wav,02,03,English,A2,True,False,True,False,False,True,True,True,True,True,True,True,No,2,No,No,No,No,2020_Aug_02_1235,nibs_stage_1,3.2.3,60.06510161207401,
2,0,2,0,,,,,0,0,0,0,13,0,13,0,,,,,,,,,,,,,,,,,,,,,,,,,,,,,,,,,,,,,,,,,,,,,,,,,Listen to the question and speak out your answer!,1163.0725519657135,None,1163.0552873134611,1165.0722148418427,"Ich darf Sie bitten, meinem Antrag zu entsprechen.",bitten,1164.4555372953414,None,1167.6556823015212,1168.6725080013275,1179.656329369545,None,1181.0730650424957,None,./data/Subject_02/Session_03/Exp_data/2020_Aug_02_1235/rec_QA_run_02_block_000_trial_013.wav,02,03,English,A2,True,False,True,False,False,True,True,True,True,True,True,True,No,2,No,No,No,No,2020_Aug_02_1235,nibs_stage_1,3.2.3,60.06510161207401,
2,0,2,0,,,,,0,0,0,0,14,0,14,0,,,,,,,,,,,,,,,,,,,,,,,,,,,,,,,,,,,,,,,,,,,,,,,,,Listen to the question and speak out your answer!,1184.139967918396,None,1184.1064114093779,1186.1400079727173,Herr Becker hat den Zug nach Deutschland genommen.,genommen,1185.5233113527297,1188.1404008865356,1188.5234563112258,None,1200.7241003274917,None,1202.1411228179932,None,./data/Subject_02/Session_03/Exp_data/2020_Aug_02_1235/rec_QA_run_02_block_000_trial_014.wav,02,03,English,A2,True,False,True,False,False,True,True,True,True,True,True,True,No,2,No,No,No,No,2020_Aug_02_1235,nibs_stage_1,3.2.3,60.06510161207401,
2,0,2,0,,,,,0,0,0,0,15,0,15,0,,,,,,,,,,,,,,,,,,,,,,,,,,,,,,,,,,,,,,,,,,,,,,,,,Listen to the question and speak out your answer!,1205.157958984375,None,1205.1408433437346,1207.1577639579773,"Bitten aufpassen, zu viel Zucker schadet der Gesundheit.",aufpassen,1206.5410523176192,None,1210.3079373598098,None,1221.7419104337691,None,1223.1586139202118,None,./data/Subject_02/Session_03/Exp_data/2020_Aug_02_1235/rec_QA_run_02_block_000_trial_015.wav,02,03,English,A2,True,False,True,False,False,True,True,True,True,True,True,True,No,2,No,No,No,No,2020_Aug_02_1235,nibs_stage_1,3.2.3,60.06510161207401,
2,0,2,0,,,,,0,0,0,0,16,0,16,0,,,,,,,,,,,,,,,,,,,,,,,,,,,,,,,,,,,,,,,,,,,,,,,,,Listen to the question and speak out your answer!,1226.2255339622498,None,1226.1920222759245,1228.2255599498749,Das Lagerfeuer hat zwei Stunden lang gebrannt.,gebrannt,1227.6089493989944,None,1230.742347216606,None,1242.8096403837203,None,1244.2263798713684,None,./data/Subject_02/Session_03/Exp_data/2020_Aug_02_1235/rec_QA_run_02_block_000_trial_016.wav,02,03,English,A2,True,False,True,False,False,True,True,True,True,True,True,True,No,2,No,No,No,No,2020_Aug_02_1235,nibs_stage_1,3.2.3,60.06510161207401,
2,0,2,0,,,,,0,0,0,0,17,0,17,0,,,,,,,,,,,,,,,,,,,,,,,,,,,,,,,,,,,,,,,,,,,,,,,,,Listen to the question and speak out your answer!,1247.260246038437,None,1247.2430927038192,1249.2601218223572,Dieses Brot ist maschinell hergestellt worden.,hergestellt,1248.6432883501052,1251.4934508800507,1251.87679336071,1252.8935289382935,1263.844093298912,None,1265.260824918747,None,./data/Subject_02/Session_03/Exp_data/2020_Aug_02_1235/rec_QA_run_02_block_000_trial_017.wav,02,03,English,A2,True,False,True,False,False,True,True,True,True,True,True,True,No,2,No,No,No,No,2020_Aug_02_1235,nibs_stage_1,3.2.3,60.06510161207401,
2,0,2,0,,,,,0,0,0,0,18,0,18,0,,,,,,,,,,,,,,,,,,,,,,,,,,,,,,,,,,,,,,,,,,,,,,,,,Listen to the question and speak out your answer!,1268.328570842743,None,1268.310846734047,1270.3277719020844,Sie fühlt sich während der Quarantäne sehr langweilig.,fühlt,1269.7110583543777,1272.994568824768,1273.3779513597487,1274.3946640491486,1284.911878323555,1285.928565979004,1286.3286628723145,None,./data/Subject_02/Session_03/Exp_data/2020_Aug_02_1235/rec_QA_run_02_block_000_trial_018.wav,02,03,English,A2,True,False,True,False,False,True,True,True,True,True,True,True,No,2,No,No,No,No,2020_Aug_02_1235,nibs_stage_1,3.2.3,60.06510161207401,
2,0,2,0,,,,,0,0,0,0,19,0,19,0,,,,,,,,,,,,,,,,,,,,,,,,,,,,,,,,,,,,,,,,,,,,,,,,,Listen to the question and speak out your answer!,1289.3960478305817,None,1289.3619672775267,1291.3956949710846,Flora hat Musik studiert und dirigiert jetzt das Orchester.,studiert,1290.7788252592086,None,1295.0790524244308,None,1305.9796302080154,None,1307.396381855011,None,./data/Subject_02/Session_03/Exp_data/2020_Aug_02_1235/rec_QA_run_02_block_000_trial_019.wav,02,03,English,A2,True,False,True,False,False,True,True,True,True,True,True,True,No,2,No,No,No,No,2020_Aug_02_1235,nibs_stage_1,3.2.3,60.06510161207401,
2,0,2,0,,,,,0,0,0,0,20,0,20,0,,,,,,,,,,,,,,,,,,,,,,,,,,,,,,,,,,,,,,,,,,,,,,,,,Listen to the question and speak out your answer!,1310.4133100509644,None,1310.3963672637938,1312.4134938716888,Das Abkommen läuft noch fünf Monate. ,läuft,1311.7966973543166,1314.3134999275208,1314.6967594385146,None,1326.9974112272262,None,1328.4140720367432,None,./data/Subject_02/Session_03/Exp_data/2020_Aug_02_1235/rec_QA_run_02_block_000_trial_020.wav,02,03,English,A2,True,False,True,False,False,True,True,True,True,True,True,True,No,2,No,No,No,No,2020_Aug_02_1235,nibs_stage_1,3.2.3,60.06510161207401,
2,0,2,0,,,,,0,0,0,0,21,0,21,0,,,,,,,,,,,,,,,,,,,,,,,,,,,,,,,,,,,,,,,,,,,,,,,,,Listen to the question and speak out your answer!,1331.4810609817505,None,1331.4475223541258,1333.4810848236084,"Araber lieben es, auf den Märkten zu handeln.",handeln,1332.8643913030623,1335.7146379947662,1336.0645472764968,None,1348.0652582406997,None,1349.4818499088287,None,./data/Subject_02/Session_03/Exp_data/2020_Aug_02_1235/rec_QA_run_02_block_000_trial_021.wav,02,03,English,A2,True,False,True,False,False,True,True,True,True,True,True,True,No,2,No,No,No,No,2020_Aug_02_1235,nibs_stage_1,3.2.3,60.06510161207401,
2,0,2,0,,,,,0,0,0,0,22,0,22,0,,,,,,,,,,,,,,,,,,,,,,,,,,,,,,,,,,,,,,,,,,,,,,,,,Listen to the question and speak out your answer!,1352.5154359340668,None,1352.4821803092955,1354.5155279636383,"Pinguine bewohnen die Antarktis, wie auch Robben und große Seelöwen.",bewohnen,1353.8988823652267,None,1358.8990752458571,1359.915799856186,1369.0996472597121,None,1370.5162909030914,None,./data/Subject_02/Session_03/Exp_data/2020_Aug_02_1235/rec_QA_run_02_block_000_trial_022.wav,02,03,English,A2,True,False,True,False,False,True,True,True,True,True,True,True,No,2,No,No,No,No,2020_Aug_02_1235,nibs_stage_1,3.2.3,60.06510161207401,
2,0,2,0,,,,,0,0,0,0,23,0,23,0,,,,,,,,,,,,,,,,,,,,,,,,,,,,,,,,,,,,,,,,,,,,,,,,,Listen to the question and speak out your answer!,1373.550488948822,None,1373.5163182735441,1375.5499749183655,"In den Zeitungen , im Radio und im Fernsehen wird regelmäßig über Sport berichtet.",berichtet,1374.9332732915877,None,1380.5335473775863,None,1390.1340954065322,None,1391.550801038742,None,./data/Subject_02/Session_03/Exp_data/2020_Aug_02_1235/rec_QA_run_02_block_000_trial_023.wav,02,03,English,A2,True,False,True,False,False,True,True,True,True,True,True,True,No,2,No,No,No,No,2020_Aug_02_1235,nibs_stage_1,3.2.3,60.06510161207401,
2,0,2,0,,,,,0,0,0,0,24,0,24,0,,,,,,,,,,,,,,,,,,,,,,,,,,,,,,,,,,,,,,,,,,,,,,,,,Listen to the question and speak out your answer!,1394.5849499702454,None,1394.5508844375609,1396.5844130516052,Trotz meines Verbots hat er sein Auto vor meinem Haus geparkt.,geparkt,1395.9677262067794,None,1400.0679213762282,None,1411.168446278572,1412.1852378845215,1412.5853128433228,None,./data/Subject_02/Session_03/Exp_data/2020_Aug_02_1235/rec_QA_run_02_block_000_trial_024.wav,02,03,English,A2,True,False,True,False,False,True,True,True,True,True,True,True,No,2,No,No,No,No,2020_Aug_02_1235,nibs_stage_1,3.2.3,60.06510161207401,
2,0,2,0,,,,,0,0,0,0,,,,,,,,,,,,,,,,,,,,,,,,,,,,,,,,,,,,,,,,,,1416.6021399497986,None,,,,,,,,,,,,,,,,,,,,,,,,,,02,03,English,A2,True,False,True,False,False,True,True,True,True,True,True,True,No,2,No,No,No,No,2020_Aug_02_1235,nibs_stage_1,3.2.3,60.06510161207401,
2,0,2,0,,,,,1,0,1,0,0,0,0,0,,,,,,,,,,,,,,,,,,,,,,,,,,,,,,,,,,,,,,,,,,,,,,,,,Listen to the question and speak out your answer!,1430.769865989685,None,1430.7526720046997,1432.769681930542,Meine kleine Schwester spielt draußen im Garten.,spielt,1432.119606232643,1435.1365349292755,1435.553126311302,None,1447.3204214334487,None,1448.7372670173645,None,./data/Subject_02/Session_03/Exp_data/2020_Aug_02_1235/rec_QA_run_02_block_001_trial_000.wav,02,03,English,A2,True,False,True,False,False,True,True,True,True,True,True,True,No,2,No,No,No,No,2020_Aug_02_1235,nibs_stage_1,3.2.3,60.06510161207401,
2,0,2,0,,,,,1,0,1,0,1,0,1,0,,,,,,,,,,,,,,,,,,,,,,,,,,,,,,,,,,,,,,,,,,,,,,,,,Listen to the question and speak out your answer!,1451.8212778568268,None,1451.7871827363967,1453.8208830356598,"Die Schüler sind begeistert, denn ihre Schule hat eine Exkursion organisiert.",organisiert,1453.1707193613051,1457.9214420318604,1458.304324364662,None,1468.3715324163436,1469.3882348537445,1469.7882459163666,None,./data/Subject_02/Session_03/Exp_data/2020_Aug_02_1235/rec_QA_run_02_block_001_trial_001.wav,02,03,English,A2,True,False,True,False,False,True,True,True,True,True,True,True,No,2,No,No,No,No,2020_Aug_02_1235,nibs_stage_1,3.2.3,60.06510161207401,
2,0,2,0,,,,,1,0,1,0,2,0,2,0,,,,,,,,,,,,,,,,,,,,,,,,,,,,,,,,,,,,,,,,,,,,,,,,,Listen to the question and speak out your answer!,1472.83908700943,None,1472.8049280405044,1474.8385219573975,Ein Fußball Team besteht aus zehn Spielern und einem Tormann.,besteht,1474.1884803533553,1478.0387308597565,1478.4554493188857,None,1489.3893072366714,None,1490.8060660362244,None,./data/Subject_02/Session_03/Exp_data/2020_Aug_02_1235/rec_QA_run_02_block_001_trial_002.wav,02,03,English,A2,True,False,True,False,False,True,True,True,True,True,True,True,No,2,No,No,No,No,2020_Aug_02_1235,nibs_stage_1,3.2.3,60.06510161207401,
2,0,2,0,,,,,1,0,1,0,3,0,3,0,,,,,,,,,,,,,,,,,,,,,,,,,,,,,,,,,,,,,,,,,,,,,,,,,Listen to the question and speak out your answer!,1493.873417854309,None,1493.839397382736,1495.872967004776,Wir haben die Buchung per E-Mail bestätigt.,bestätigt,1495.256195282936,None,1498.1897473096847,None,1510.4570064306258,None,1511.8738069534302,None,./data/Subject_02/Session_03/Exp_data/2020_Aug_02_1235/rec_QA_run_02_block_001_trial_003.wav,02,03,English,A2,True,False,True,False,False,True,True,True,True,True,True,True,No,2,No,No,No,No,2020_Aug_02_1235,nibs_stage_1,3.2.3,60.06510161207401,
2,0,2,0,,,,,1,0,1,0,4,0,4,0,,,,,,,,,,,,,,,,,,,,,,,,,,,,,,,,,,,,,,,,,,,,,,,,,Listen to the question and speak out your answer!,1514.9079229831696,None,1514.8738333702086,1516.9074158668518,An Regentagen benutzen die Leute einen Regenschirm.,benutzen,1516.29071829319,None,1520.024242377281,None,1531.4918043375014,1532.5082259178162,1532.9082849025726,None,./data/Subject_02/Session_03/Exp_data/2020_Aug_02_1235/rec_QA_run_02_block_001_trial_004.wav,02,03,English,A2,True,False,True,False,False,True,True,True,True,True,True,True,No,2,No,No,No,No,2020_Aug_02_1235,nibs_stage_1,3.2.3,60.06510161207401,
2,0,2,0,,,,,1,0,1,0,5,0,5,0,,,,,,,,,,,,,,,,,,,,,,,,,,,,,,,,,,,,,,,,,,,,,,,,,Listen to the question and speak out your answer!,1535.9422898292542,None,1535.9082743644713,1537.9418568611145,"Im Unterricht habe ich das Wichtige notiert, was der Lehrer gesagt.",notiert,1537.3255722284316,None,1541.7587113142013,None,1552.4926483392715,1553.509337902069,1553.9093608856201,None,./data/Subject_02/Session_03/Exp_data/2020_Aug_02_1235/rec_QA_run_02_block_001_trial_005.wav,02,03,English,A2,True,False,True,False,False,True,True,True,True,True,True,True,No,2,No,No,No,No,2020_Aug_02_1235,nibs_stage_1,3.2.3,60.06510161207401,
2,0,2,0,,,,,1,0,1,0,6,0,6,0,,,,,,,,,,,,,,,,,,,,,,,,,,,,,,,,,,,,,,,,,,,,,,,,,Listen to the question and speak out your answer!,1556.976814031601,None,1556.942715358734,1558.9764590263367,Bei dem Gewitter letzte Woche hat der Blitz in ein Boot eingeschlagen.,eingeschlagen,1558.3265573740005,1562.1097049713135,1562.5264713525771,None,1573.5273372888564,None,1574.9438109397888,None,./data/Subject_02/Session_03/Exp_data/2020_Aug_02_1235/rec_QA_run_02_block_001_trial_006.wav,02,03,English,A2,True,False,True,False,False,True,True,True,True,True,True,True,No,2,No,No,No,No,2020_Aug_02_1235,nibs_stage_1,3.2.3,60.06510161207401,
2,0,2,0,,,,,1,0,1,0,7,0,7,0,,,,,,,,,,,,,,,,,,,,,,,,,,,,,,,,,,,,,,,,,,,,,,,,,Listen to the question and speak out your answer!,1578.0106329917908,None,1577.9771704196928,1580.01074385643,Diese Telefinnummer ist leicht zu merken.,merken,1579.394029355049,1581.9776270389557,1582.3608543634414,1583.3775758743286,1594.5948192834853,None,1596.011566877365,None,./data/Subject_02/Session_03/Exp_data/2020_Aug_02_1235/rec_QA_run_02_block_001_trial_007.wav,02,03,English,A2,True,False,True,False,False,True,True,True,True,True,True,True,No,2,No,No,No,No,2020_Aug_02_1235,nibs_stage_1,3.2.3,60.06510161207401,
2,0,2,0,,,,,1,0,1,0,8,0,8,0,,,,,,,,,,,,,,,,,,,,,,,,,,,,,,,,,,,,,,,,,,,,,,,,,Listen to the question and speak out your answer!,1599.045697927475,None,1599.0116052150724,1601.0451638698578,Jeden Tag lesen wir die Zeitung.,lesen,1600.3951663732528,1602.6452419757843,1603.0286292791366,None,1615.595956301689,None,1617.012676000595,None,./data/Subject_02/Session_03/Exp_data/2020_Aug_02_1235/rec_QA_run_02_block_001_trial_008.wav,02,03,English,A2,True,False,True,False,False,True,True,True,True,True,True,True,No,2,No,No,No,No,2020_Aug_02_1235,nibs_stage_1,3.2.3,60.06510161207401,
2,0,2,0,,,,,1,0,1,0,9,0,9,0,,,,,,,,,,,,,,,,,,,,,,,,,,,,,,,,,,,,,,,,,,,,,,,,,Listen to the question and speak out your answer!,1620.0800449848175,None,1620.0628268003463,1622.0796098709106,"Am Ostersonntag suchen die Kinder bunte Eier, die ihre Eltern verstecken.",verstecken,1621.4630362749099,None,1626.3630833387374,None,1636.6637143850326,None,1638.080400943756,None,./data/Subject_02/Session_03/Exp_data/2020_Aug_02_1235/rec_QA_run_02_block_001_trial_009.wav,02,03,English,A2,True,False,True,False,False,True,True,True,True,True,True,True,No,2,No,No,No,No,2020_Aug_02_1235,nibs_stage_1,3.2.3,60.06510161207401,
2,0,2,0,,,,,1,0,1,0,10,0,10,0,,,,,,,,,,,,,,,,,,,,,,,,,,,,,,,,,,,,,,,,,,,,,,,,,Listen to the question and speak out your answer!,1641.1146709918976,None,1641.0805842399595,1643.114061832428,Das Mädchen kümmert sich um seine erkältete Mutter.,kümmert,1642.497270321846,None,1645.997555232048,None,1657.6981513261794,None,1659.1148519515991,None,./data/Subject_02/Session_03/Exp_data/2020_Aug_02_1235/rec_QA_run_02_block_001_trial_010.wav,02,03,English,A2,True,False,True,False,False,True,True,True,True,True,True,True,No,2,No,No,No,No,2020_Aug_02_1235,nibs_stage_1,3.2.3,60.06510161207401,
2,0,2,0,,,,,1,0,1,0,11,0,11,0,,,,,,,,,,,,,,,,,,,,,,,,,,,,,,,,,,,,,,,,,,,,,,,,,Listen to the question and speak out your answer!,1662.1324059963226,None,1662.0983829259872,1664.1318159103394,Bananen wachsen auf Palmen.,wachsen,1663.4817833662032,None,1665.9485943078994,None,1678.6825923681258,None,1680.0994009971619,None,./data/Subject_02/Session_03/Exp_data/2020_Aug_02_1235/rec_QA_run_02_block_001_trial_011.wav,02,03,English,A2,True,False,True,False,False,True,True,True,True,True,True,True,No,2,No,No,No,No,2020_Aug_02_1235,nibs_stage_1,3.2.3,60.06510161207401,
2,0,2,0,,,,,1,0,1,0,12,0,12,0,,,,,,,,,,,,,,,,,,,,,,,,,,,,,,,,,,,,,,,,,,,,,,,,,Listen to the question and speak out your answer!,1683.1665148735046,None,1683.1493617773056,1685.1662738323212,Ich werde Ihnen das Kapital mit Zinsen zurückgegeben.,zurückgegeben,1684.5494813680648,None,1688.3164632081985,None,1699.7503714323043,None,1701.1671378612518,None,./data/Subject_02/Session_03/Exp_data/2020_Aug_02_1235/rec_QA_run_02_block_001_trial_012.wav,02,03,English,A2,True,False,True,False,False,True,True,True,True,True,True,True,No,2,No,No,No,No,2020_Aug_02_1235,nibs_stage_1,3.2.3,60.06510161207401,
2,0,2,0,,,,,1,0,1,0,13,0,13,0,,,,,,,,,,,,,,,,,,,,,,,,,,,,,,,,,,,,,,,,,,,,,,,,,Listen to the question and speak out your answer!,1704.2012348175049,None,1704.1671614170073,1706.2007110118866,"Ich ging zum Arzt, weil ich mich unangenehm fühlte.",fühlte,1705.5507893323897,1708.7344188690186,1709.1175403356551,None,1720.7514834165572,1721.7681789398193,1722.1682739257812,None,./data/Subject_02/Session_03/Exp_data/2020_Aug_02_1235/rec_QA_run_02_block_001_trial_013.wav,02,03,English,A2,True,False,True,False,False,True,True,True,True,True,True,True,No,2,No,No,No,No,2020_Aug_02_1235,nibs_stage_1,3.2.3,60.06510161207401,
2,0,2,0,,,,,1,0,1,0,14,0,14,0,,,,,,,,,,,,,,,,,,,,,,,,,,,,,,,,,,,,,,,,,,,,,,,,,Listen to the question and speak out your answer!,1725.2354218959808,None,1725.2015563964842,1727.2351548671722,Er wurde zum Leiter der Abteilung befördert.,befördert,1726.6184322595595,None,1729.6519753694533,1730.6687009334564,1741.819364285469,None,1743.2359719276428,None,./data/Subject_02/Session_03/Exp_data/2020_Aug_02_1235/rec_QA_run_02_block_001_trial_014.wav,02,03,English,A2,True,False,True,False,False,True,True,True,True,True,True,True,No,2,No,No,No,No,2020_Aug_02_1235,nibs_stage_1,3.2.3,60.06510161207401,
2,0,2,0,,,,,1,0,1,0,15,0,15,0,,,,,,,,,,,,,,,,,,,,,,,,,,,,,,,,,,,,,,,,,,,,,,,,,Listen to the question and speak out your answer!,1746.2695229053497,None,1746.2359892845152,1748.2695848941803,Ihr Regenschirm kann Sie vor dem Regen schützen.,schützen,1747.6528763532638,1750.3699669837952,1750.753063416481,None,1762.8537032365798,None,1764.2704238891602,None,./data/Subject_02/Session_03/Exp_data/2020_Aug_02_1235/rec_QA_run_02_block_001_trial_015.wav,02,03,English,A2,True,False,True,False,False,True,True,True,True,True,True,True,No,2,No,No,No,No,2020_Aug_02_1235,nibs_stage_1,3.2.3,60.06510161207401,
2,0,2,0,,,,,1,0,1,0,16,0,16,0,,,,,,,,,,,,,,,,,,,,,,,,,,,,,,,,,,,,,,,,,,,,,,,,,Listen to the question and speak out your answer!,1767.3045270442963,None,1767.2704202651976,1769.3040318489075,Viele Indianer leben in Reservaten.,leben,1768.6874084234237,1771.4378168582916,1771.8208753824233,None,1783.8882512807845,1784.9048368930817,1785.3048939704895,None,./data/Subject_02/Session_03/Exp_data/2020_Aug_02_1235/rec_QA_run_02_block_001_trial_016.wav,02,03,English,A2,True,False,True,False,False,True,True,True,True,True,True,True,No,2,No,No,No,No,2020_Aug_02_1235,nibs_stage_1,3.2.3,60.06510161207401,
2,0,2,0,,,,,1,0,1,0,17,0,17,0,,,,,,,,,,,,,,,,,,,,,,,,,,,,,,,,,,,,,,,,,,,,,,,,,Listen to the question and speak out your answer!,1788.3400979042053,None,1788.3215936899185,1790.3384578227997,Mein Hund hat ein paar Tricks gelernt. ,gelernt,1789.7217812299727,1791.8054339885712,1792.1552333593368,None,1804.9225153684615,None,1806.3393559455872,None,./data/Subject_02/Session_03/Exp_data/2020_Aug_02_1235/rec_QA_run_02_block_001_trial_017.wav,02,03,English,A2,True,False,True,False,False,True,True,True,True,True,True,True,No,2,No,No,No,No,2020_Aug_02_1235,nibs_stage_1,3.2.3,60.06510161207401,
2,0,2,0,,,,,1,0,1,0,18,0,18,0,,,,,,,,,,,,,,,,,,,,,,,,,,,,,,,,,,,,,,,,,,,,,,,,,Listen to the question and speak out your answer!,1809.4078388214111,None,1809.3893436670303,1811.4062700271606,"Lebensmittel sind die Dinge, die man essen kann.",essen,1810.7895223855971,1813.6730239391327,1814.0563823938369,None,1825.990371441841,1827.007141828537,1827.4070808887482,None,./data/Subject_02/Session_03/Exp_data/2020_Aug_02_1235/rec_QA_run_02_block_001_trial_018.wav,02,03,English,A2,True,False,True,False,False,True,True,True,True,True,True,True,No,2,No,No,No,No,2020_Aug_02_1235,nibs_stage_1,3.2.3,60.06510161207401,
2,0,2,0,,,,,1,0,1,0,19,0,19,0,,,,,,,,,,,,,,,,,,,,,,,,,,,,,,,,,,,,,,,,,,,,,,,,,Listen to the question and speak out your answer!,1830.4254829883575,None,1830.4071192264555,1832.4240119457245,Wir leben in dem universalen Weltall.,leben,1831.807332253456,None,1834.7074823141097,None,1847.0084104299544,None,1848.424870967865,None,./data/Subject_02/Session_03/Exp_data/2020_Aug_02_1235/rec_QA_run_02_block_001_trial_019.wav,02,03,English,A2,True,False,True,False,False,True,True,True,True,True,True,True,No,2,No,No,No,No,2020_Aug_02_1235,nibs_stage_1,3.2.3,60.06510161207401,
2,0,2,0,,,,,1,0,1,0,20,0,20,0,,,,,,,,,,,,,,,,,,,,,,,,,,,,,,,,,,,,,,,,,,,,,,,,,Listen to the question and speak out your answer!,1851.492313861847,None,1851.4582793235777,1853.4917860031128,Die Polizei sammelte alle verfügbaren Informationen.,sammelte,1852.8417553663253,None,1856.9419803380965,None,1868.0425894021987,1869.059340953827,1869.4593539237976,None,./data/Subject_02/Session_03/Exp_data/2020_Aug_02_1235/rec_QA_run_02_block_001_trial_020.wav,02,03,English,A2,True,False,True,False,False,True,True,True,True,True,True,True,No,2,No,No,No,No,2020_Aug_02_1235,nibs_stage_1,3.2.3,60.06510161207401,
2,0,2,0,,,,,1,0,1,0,21,0,21,0,,,,,,,,,,,,,,,,,,,,,,,,,,,,,,,,,,,,,,,,,,,,,,,,,Listen to the question and speak out your answer!,1872.5264139175415,None,1872.5093387842178,1874.52623295784,Bitte zerstören Sie nicht die Natur!,zerstören,1873.909538245201,None,1876.5763323068618,1877.593199968338,1889.1103603601455,1890.1270639896393,1890.5270879268646,None,./data/Subject_02/Session_03/Exp_data/2020_Aug_02_1235/rec_QA_run_02_block_001_trial_021.wav,02,03,English,A2,True,False,True,False,False,True,True,True,True,True,True,True,No,2,No,No,No,No,2020_Aug_02_1235,nibs_stage_1,3.2.3,60.06510161207401,
2,0,2,0,,,,,1,0,1,0,22,0,22,0,,,,,,,,,,,,,,,,,,,,,,,,,,,,,,,,,,,,,,,,,,,,,,,,,Listen to the question and speak out your answer!,1893.5946979522705,None,1893.577094721794,1895.5940120220184,Kann man gekeimte Kartoffeln noch essen?,essen,1894.9773163557052,None,1897.6107923746108,None,1910.1781053304671,1911.1947710514069,1911.594799041748,None,./data/Subject_02/Session_03/Exp_data/2020_Aug_02_1235/rec_QA_run_02_block_001_trial_022.wav,02,03,English,A2,True,False,True,False,False,True,True,True,True,True,True,True,No,2,No,No,No,No,2020_Aug_02_1235,nibs_stage_1,3.2.3,60.06510161207401,
2,0,2,0,,,,,1,0,1,0,23,0,23,0,,,,,,,,,,,,,,,,,,,,,,,,,,,,,,,,,,,,,,,,,,,,,,,,,Listen to the question and speak out your answer!,1914.6789870262146,None,1914.6448666334152,1916.6784620285034,Leni bewegt beim Lesen die Lippen.,bewegt,1916.028410410881,1918.2117929458618,1918.6284703969955,1919.645278930664,1931.229228234291,None,1932.6459939479828,None,./data/Subject_02/Session_03/Exp_data/2020_Aug_02_1235/rec_QA_run_02_block_001_trial_023.wav,02,03,English,A2,True,False,True,False,False,True,True,True,True,True,True,True,No,2,No,No,No,No,2020_Aug_02_1235,nibs_stage_1,3.2.3,60.06510161207401,
2,0,2,0,,,,,1,0,1,0,24,0,24,0,,,,,,,,,,,,,,,,,,,,,,,,,,,,,,,,,,,,,,,,,,,,,,,,,Listen to the question and speak out your answer!,1935.712877035141,None,1935.6793162345884,1937.7128930091858,Der Donau fließt ins Schwarze Meer.,fließt,1937.0628564119338,None,1939.796371436119,None,1952.2636914014815,1953.2806949615479,1953.6804158687592,None,./data/Subject_02/Session_03/Exp_data/2020_Aug_02_1235/rec_QA_run_02_block_001_trial_024.wav,02,03,English,A2,True,False,True,False,False,True,True,True,True,True,True,True,No,2,No,No,No,No,2020_Aug_02_1235,nibs_stage_1,3.2.3,60.06510161207401,
