run.thisRepN,run.thisTrialN,run.thisN,run.thisIndex,QA_block.thisRepN,QA_block.thisTrialN,QA_block.thisN,QA_block.thisIndex,QA_trial.thisRepN,QA_trial.thisTrialN,QA_trial.thisN,QA_trial.thisIndex,fade_in_text.text,fade_in_text.started,fade_in_text.stopped,RS_intro_title.started,RS_intro_title.stopped,RS_intro_text.text,RS_intro_text.started,RS_intro_text.stopped,RS_intro_audio.started,RS_intro_audio.stopped,RS_rec_text.text,RS_rec_text.started,RS_rec_text.stopped,Pause_cont.started,Pause_cont.stopped,QA_intro_title.started,QA_intro_title.stopped,QA_intro_text.text,QA_intro_text.started,QA_intro_text.stopped,QA_intro_audio.started,QA_intro_audio.stopped,QA_intro_cont.started,QA_intro_cont.stopped,QA_rec_text.text,QA_rec_text.started,QA_rec_text.stopped,QA_rec_beep_hint.started,QA_rec_beep_hint.stopped,QA_rec_question.sen_text,QA_rec_question.cen_text,QA_rec_question.started,QA_rec_question.stopped,QA_rec_beep_start.started,QA_rec_beep_start.stopped,QA_rec_beep_end.started,QA_rec_beep_end.stopped,QA_rec_break.started,QA_rec_break.stopped,filename,participant,session,First language,German level,Full_screen,Instruction,Intro,Artifact,Cali_pre,Fade_in_out,Artifact_within,Resting_State,QA,Pause,Cali_post,End,Breakpoint_Cali_pre_trial,Breakpoint_Run,Breakpoint_RS_block,Breakpoint_QA_block,Breakpoint_QA_trial,Breakpoint_Cali_post_trial,date,expName,psychopyVersion,frameRate,
3,0,3,0,0,0,0,0,0,0,0,0,Please remain seated until further instruction via the earphone.,59.5633978843689,None,269.0076038837433,None," - Task: Keep seated and relaxed with either      
             opening or closing eyes                  
 - Beep sound with decreasing pitch: Block finish 
",269.0076038837433,None,269.00677013397217,None,"Please keep relaxed and open your eyes.
Note: Blinking is allowed.",292.0256679058075,472.0351779460907,475.41867089271545,None,489.43590688705444,None," - Task: Listen to the question& Speak out answer 
 - Melodious beep sound: Trial start              
 - Silent sound (blank): censored word            
 - Beep sound with increasing pitch: Rec. start   
 - Beep sound with decreasing pitch: Rec. finish  
",489.43590688705444,None,489.41815435886383,None,528.8378958702087,None,Listen to the question and speak out your answer!,531.921648979187,None,531.9037041664124,533.9048409461975,Moni hat eine Fahrkarte für den Zug nach Salzburg gekauft.,gekauft,533.288123011589,None,537.438353896141,None,548.489051938057,549.4890580177307,549.8889260292053,550.8890578746796,./data/Subject_02/Session_03/Exp_data/2020_Aug_02_1308/rec_QA_run_03_block_000_trial_000.wav,02,03,English,A2,True,False,True,False,False,True,True,True,True,True,True,True,No,3,No,No,No,No,2020_Aug_02_1308,nibs_stage_1,3.2.3,59.99447873382777,
3,0,3,0,0,0,0,0,1,0,1,0,,,,,,,,,,,,,,,,,,,,,,,,,Listen to the question and speak out your answer!,552.9734749794006,None,552.9552372694016,554.9558639526367,"Ich sitze weit entfernt von der Bühne, also muss ich durch ein Fernglas schauen.",schauen,554.3392330408096,None,559.1395109891891,None,569.5400339365005,None,570.9401118755341,571.9400818347931,./data/Subject_02/Session_03/Exp_data/2020_Aug_02_1308/rec_QA_run_03_block_000_trial_001.wav,02,03,English,A2,True,False,True,False,False,True,True,True,True,True,True,True,No,3,No,No,No,No,2020_Aug_02_1308,nibs_stage_1,3.2.3,59.99447873382777,
3,0,3,0,0,0,0,0,2,0,2,0,,,,,,,,,,,,,,,,,,,,,,,,,Listen to the question and speak out your answer!,574.0081119537354,None,574.0063520669937,576.0070700645447,"Ich möchte, dass Sie das Wort mit Ihren eigenen Worten erklären!",erklären,575.3738728761673,579.207288980484,579.6238950490952,None,590.5746809244156,None,591.9747638702393,592.9748158454895,./data/Subject_02/Session_03/Exp_data/2020_Aug_02_1308/rec_QA_run_03_block_000_trial_002.wav,02,03,English,A2,True,False,True,False,False,True,True,True,True,True,True,True,No,3,No,No,No,No,2020_Aug_02_1308,nibs_stage_1,3.2.3,59.99447873382777,
3,0,3,0,0,0,0,0,3,0,3,0,,,,,,,,,,,,,,,,,,,,,,,,,Listen to the question and speak out your answer!,595.0583138465881,None,595.0409702062607,597.0416929721832,Der Amazon Kurier hat das Paket geliefert.,geliefert,596.44169485569,None,599.6419578790665,None,611.6424959897995,612.6425309181213,613.0425369739532,614.042592048645,./data/Subject_02/Session_03/Exp_data/2020_Aug_02_1308/rec_QA_run_03_block_000_trial_003.wav,02,03,English,A2,True,False,True,False,False,True,True,True,True,True,True,True,No,3,No,No,No,No,2020_Aug_02_1308,nibs_stage_1,3.2.3,59.99447873382777,
3,0,3,0,0,0,0,0,4,0,4,0,,,,,,,,,,,,,,,,,,,,,,,,,Listen to the question and speak out your answer!,616.0931060314178,None,616.0753562450409,618.0761778354645,"Das Fenster ist offen, aber ich werde es schließen.",schließen,617.4761098623276,620.4762809276581,620.8763729333878,None,632.6771479845047,None,634.0770149230957,635.0770289897919,./data/Subject_02/Session_03/Exp_data/2020_Aug_02_1308/rec_QA_run_03_block_000_trial_004.wav,02,03,English,A2,True,False,True,False,False,True,True,True,True,True,True,True,No,3,No,No,No,No,2020_Aug_02_1308,nibs_stage_1,3.2.3,59.99447873382777,
3,0,3,0,0,0,0,0,5,0,5,0,,,,,,,,,,,,,,,,,,,,,,,,,Listen to the question and speak out your answer!,637.1439130306244,None,637.1264551877975,639.1272490024567,"Da hier nur sehr wenige Parkplätze sind, nur Anwohner dürfen in dieser Straße parken.",parken,638.5106650590897,643.6608910560608,644.077507853508,None,653.7279218435287,None,655.1279630661011,656.1282238960266,./data/Subject_02/Session_03/Exp_data/2020_Aug_02_1308/rec_QA_run_03_block_000_trial_005.wav,02,03,English,A2,True,False,True,False,False,True,True,True,True,True,True,True,No,3,No,No,No,No,2020_Aug_02_1308,nibs_stage_1,3.2.3,59.99447873382777,
3,0,3,0,0,0,0,0,6,0,6,0,,,,,,,,,,,,,,,,,,,,,,,,,Listen to the question and speak out your answer!,658.1782610416412,None,658.1609880924225,660.1617999076843,Mein Freund schenkt mir eine Schachtel mit Schokolade.,schenkt,659.5616859197617,None,662.9952200651169,663.9952020645142,674.7624539136887,None,676.1625380516052,677.1625699996948,./data/Subject_02/Session_03/Exp_data/2020_Aug_02_1308/rec_QA_run_03_block_000_trial_006.wav,02,03,English,A2,True,False,True,False,False,True,True,True,True,True,True,True,No,3,No,No,No,No,2020_Aug_02_1308,nibs_stage_1,3.2.3,59.99447873382777,
3,0,3,0,0,0,0,0,7,0,7,0,,,,,,,,,,,,,,,,,,,,,,,,,Listen to the question and speak out your answer!,679.2129058837891,None,679.1953341960907,681.1961929798126,Der Läufer hat seine Konkurrenten mühelos geschlagen.,geschlagen,680.5794779062271,683.7129399776459,684.1296330690384,None,695.7802518606186,None,697.1806600093842,698.1803829669952,./data/Subject_02/Session_03/Exp_data/2020_Aug_02_1308/rec_QA_run_03_block_000_trial_007.wav,02,03,English,A2,True,False,True,False,False,True,True,True,True,True,True,True,No,3,No,No,No,No,2020_Aug_02_1308,nibs_stage_1,3.2.3,59.99447873382777,
3,0,3,0,0,0,0,0,8,0,8,0,,,,,,,,,,,,,,,,,,,,,,,,,Listen to the question and speak out your answer!,700.2639000415802,None,700.246533036232,702.2472538948059,Die Mieter wollen die Vertragsbedingungen ändern.,ändern,701.6305490732193,None,704.7306059598923,705.7307670116425,716.8314019441605,717.8314070701599,718.2314360141754,719.2315969467163,./data/Subject_02/Session_03/Exp_data/2020_Aug_02_1308/rec_QA_run_03_block_000_trial_008.wav,02,03,English,A2,True,False,True,False,False,True,True,True,True,True,True,True,No,3,No,No,No,No,2020_Aug_02_1308,nibs_stage_1,3.2.3,59.99447873382777,
3,0,3,0,0,0,0,0,9,0,9,0,,,,,,,,,,,,,,,,,,,,,,,,,Listen to the question and speak out your answer!,721.2983129024506,None,721.2811100482941,723.3149230480194,Die Wissenschaftler aus der Physik heißen Physiker.,heißen,722.6651660203934,725.8653838634491,726.298397898674,727.2986788749695,737.8657759428024,None,739.2660529613495,740.2990510463715,./data/Subject_02/Session_03/Exp_data/2020_Aug_02_1308/rec_QA_run_03_block_000_trial_009.wav,02,03,English,A2,True,False,True,False,False,True,True,True,True,True,True,True,No,3,No,No,No,No,2020_Aug_02_1308,nibs_stage_1,3.2.3,59.99447873382777,
3,0,3,0,0,0,0,0,10,0,10,0,,,,,,,,,,,,,,,,,,,,,,,,,Listen to the question and speak out your answer!,742.3665490150452,None,742.3484772443771,744.3659100532532,Was bedeutet diese Abkürzung?,bedeutet,743.7491179704666,745.7659740447998,746.149316906929,None,758.9500099420547,None,760.366781949997,None,./data/Subject_02/Session_03/Exp_data/2020_Aug_02_1308/rec_QA_run_03_block_000_trial_010.wav,02,03,English,A2,True,False,True,False,False,True,True,True,True,True,True,True,No,3,No,No,No,No,2020_Aug_02_1308,nibs_stage_1,3.2.3,59.99447873382777,
3,0,3,0,0,0,0,0,11,0,11,0,,,,,,,,,,,,,,,,,,,,,,,,,Listen to the question and speak out your answer!,763.434005022049,None,763.4162122011185,765.4338049888611,"Wir brauchen Bretter, um ein Regal zu bauen.",bauen,764.8169728517532,None,768.0171509981155,None,780.0011209249496,781.0178389549255,781.4178519248962,None,./data/Subject_02/Session_03/Exp_data/2020_Aug_02_1308/rec_QA_run_03_block_000_trial_011.wav,02,03,English,A2,True,False,True,False,False,True,True,True,True,True,True,True,No,3,No,No,No,No,2020_Aug_02_1308,nibs_stage_1,3.2.3,59.99447873382777,
3,0,3,0,0,0,0,0,12,0,12,0,,,,,,,,,,,,,,,,,,,,,,,,,Listen to the question and speak out your answer!,784.4855690002441,None,784.4673980474472,786.484797000885,"Ich kann dir gerne mein Fahrrad leihen, wenn du möchtest.",leihen,785.8681019544601,None,789.334941983223,None,801.068894982338,802.085618019104,802.4522929191589,None,./data/Subject_02/Session_03/Exp_data/2020_Aug_02_1308/rec_QA_run_03_block_000_trial_012.wav,02,03,English,A2,True,False,True,False,False,True,True,True,True,True,True,True,No,3,No,No,No,No,2020_Aug_02_1308,nibs_stage_1,3.2.3,59.99447873382777,
3,0,3,0,0,0,0,0,13,0,13,0,,,,,,,,,,,,,,,,,,,,,,,,,Listen to the question and speak out your answer!,805.5197670459747,None,805.4851212501526,807.519348859787,Die Katzen jagen Mäuse.,jagen,806.9025379419327,None,809.0694159269333,None,822.1033400297165,None,823.52024102211,None,./data/Subject_02/Session_03/Exp_data/2020_Aug_02_1308/rec_QA_run_03_block_000_trial_013.wav,02,03,English,A2,True,False,True,False,False,True,True,True,True,True,True,True,No,3,No,No,No,No,2020_Aug_02_1308,nibs_stage_1,3.2.3,59.99447873382777,
3,0,3,0,0,0,0,0,14,0,14,0,,,,,,,,,,,,,,,,,,,,,,,,,Listen to the question and speak out your answer!,826.5540859699249,None,826.5364800691605,828.5537738800049,"Wenn sie sich etwas leiht, bringt sie es immer zurück.",leiht,827.9370609521866,None,831.1038888692856,832.120619058609,843.1378599405289,844.1546039581299,844.5545380115509,None,./data/Subject_02/Session_03/Exp_data/2020_Aug_02_1308/rec_QA_run_03_block_000_trial_014.wav,02,03,English,A2,True,False,True,False,False,True,True,True,True,True,True,True,No,3,No,No,No,No,2020_Aug_02_1308,nibs_stage_1,3.2.3,59.99447873382777,
3,0,3,0,0,0,0,0,15,0,15,0,,,,,,,,,,,,,,,,,,,,,,,,,Listen to the question and speak out your answer!,847.6213619709015,None,847.6041141748428,849.6215410232544,Viele Tiere leben in Afrika.,leben,849.0048300027847,851.3882958889008,851.771644949913,None,864.2056659460068,865.2223000526428,865.6222999095917,None,./data/Subject_02/Session_03/Exp_data/2020_Aug_02_1308/rec_QA_run_03_block_000_trial_015.wav,02,03,English,A2,True,False,True,False,False,True,True,True,True,True,True,True,No,3,No,No,No,No,2020_Aug_02_1308,nibs_stage_1,3.2.3,59.99447873382777,
3,0,3,0,0,0,0,0,16,0,16,0,,,,,,,,,,,,,,,,,,,,,,,,,Listen to the question and speak out your answer!,868.6891708374023,None,868.6717780828476,870.6892230510712,"Ausländische Studenten, die wenig Geld haben, brauchen ein Stipendium.",brauchen,870.0725339651108,None,874.9394589662552,None,885.273344874382,886.2900409698486,886.6900708675385,None,./data/Subject_02/Session_03/Exp_data/2020_Aug_02_1308/rec_QA_run_03_block_000_trial_016.wav,02,03,English,A2,True,False,True,False,False,True,True,True,True,True,True,True,No,3,No,No,No,No,2020_Aug_02_1308,nibs_stage_1,3.2.3,59.99447873382777,
3,0,3,0,0,0,0,0,17,0,17,0,,,,,,,,,,,,,,,,,,,,,,,,,Listen to the question and speak out your answer!,889.7572128772736,None,889.7395430803299,891.7570040225983,"Wir hoffen, dass die Verhandlungen zu einem erfolgreichen Abschluss kommen.",hoffen,891.1402939558029,895.2571740150452,895.607185959816,896.6239190101624,906.3411279916763,None,907.7578639984131,None,./data/Subject_02/Session_03/Exp_data/2020_Aug_02_1308/rec_QA_run_03_block_000_trial_017.wav,02,03,English,A2,True,False,True,False,False,True,True,True,True,True,True,True,No,3,No,No,No,No,2020_Aug_02_1308,nibs_stage_1,3.2.3,59.99447873382777,
3,0,3,0,0,0,0,0,18,0,18,0,,,,,,,,,,,,,,,,,,,,,,,,,Listen to the question and speak out your answer!,910.8250329494476,None,910.8073612451553,912.8248898983002,Der Bus fährt jede Stunde.,fährt,912.2080689668655,914.1248569488525,914.5081239938736,None,927.4088760614395,None,928.8258168697357,None,./data/Subject_02/Session_03/Exp_data/2020_Aug_02_1308/rec_QA_run_03_block_000_trial_018.wav,02,03,English,A2,True,False,True,False,False,True,True,True,True,True,True,True,No,3,No,No,No,No,2020_Aug_02_1308,nibs_stage_1,3.2.3,59.99447873382777,
3,0,3,0,0,0,0,0,19,0,19,0,,,,,,,,,,,,,,,,,,,,,,,,,Listen to the question and speak out your answer!,931.9097390174866,None,931.8750990629196,933.90922498703,"Mein Handy ist schon eingeschaltet, so dass Sie mich jederzeit anrufen können.",anrufen,933.2925280332565,None,938.259437918663,None,948.4600180387497,None,949.8767130374908,None,./data/Subject_02/Session_03/Exp_data/2020_Aug_02_1308/rec_QA_run_03_block_000_trial_019.wav,02,03,English,A2,True,False,True,False,False,True,True,True,True,True,True,True,No,3,No,No,No,No,2020_Aug_02_1308,nibs_stage_1,3.2.3,59.99447873382777,
3,0,3,0,0,0,0,0,20,0,20,0,,,,,,,,,,,,,,,,,,,,,,,,,Listen to the question and speak out your answer!,952.9441058635712,None,952.9095392227173,954.943657875061,Ich möchte gerne ein Zimmer im Hilton-Hotel reservieren.,reservieren,954.3269580602646,957.6107439994812,957.9938389062881,959.0105428695679,969.52776491642,None,970.9447519779205,None,./data/Subject_02/Session_03/Exp_data/2020_Aug_02_1308/rec_QA_run_03_block_000_trial_020.wav,02,03,English,A2,True,False,True,False,False,True,True,True,True,True,True,True,No,3,No,No,No,No,2020_Aug_02_1308,nibs_stage_1,3.2.3,59.99447873382777,
3,0,3,0,0,0,0,0,21,0,21,0,,,,,,,,,,,,,,,,,,,,,,,,,Listen to the question and speak out your answer!,973.9780900478363,None,973.9440181255341,975.9780950546265,Antragsteller für ein Visum können online ein Formular ausfüllen.,ausfüllen,975.3613868951797,None,979.6283930540085,None,990.5621989965439,None,991.9789838790894,None,./data/Subject_02/Session_03/Exp_data/2020_Aug_02_1308/rec_QA_run_03_block_000_trial_021.wav,02,03,English,A2,True,False,True,False,False,True,True,True,True,True,True,True,No,3,No,No,No,No,2020_Aug_02_1308,nibs_stage_1,3.2.3,59.99447873382777,
3,0,3,0,0,0,0,0,22,0,22,0,,,,,,,,,,,,,,,,,,,,,,,,,Listen to the question and speak out your answer!,995.01313996315,None,994.9951502084732,997.0125389099121,"Ob die bereitgestellte Information korrekt ist, müssen wir prüfen.",prüfen,996.3958328962326,None,1000.8627470731735,None,1011.5965908765793,None,1013.0134038925171,None,./data/Subject_02/Session_03/Exp_data/2020_Aug_02_1308/rec_QA_run_03_block_000_trial_022.wav,02,03,English,A2,True,False,True,False,False,True,True,True,True,True,True,True,No,3,No,No,No,No,2020_Aug_02_1308,nibs_stage_1,3.2.3,59.99447873382777,
3,0,3,0,0,0,0,0,23,0,23,0,,,,,,,,,,,,,,,,,,,,,,,,,Listen to the question and speak out your answer!,1016.0809519290924,None,1016.0463011264801,1018.0803170204163,Wir werden jedes Paket innerhalb von fünf Arbeitstagen liefern.,liefern,1017.4302839040756,None,1021.7305060625076,None,1032.6311198472977,1033.6478018760681,1034.0478360652924,None,./data/Subject_02/Session_03/Exp_data/2020_Aug_02_1308/rec_QA_run_03_block_000_trial_023.wav,02,03,English,A2,True,False,True,False,False,True,True,True,True,True,True,True,No,3,No,No,No,No,2020_Aug_02_1308,nibs_stage_1,3.2.3,59.99447873382777,
3,0,3,0,0,0,0,0,24,0,24,0,,,,,,,,,,,,,,,,,,,,,,,,,Listen to the question and speak out your answer!,1037.1155638694763,None,1037.0973402261734,1039.11479306221,Die Kinder basteln Puppen aus Filz und Watte.,basteln,1038.4980529546738,1041.4482128620148,1041.7982250452042,None,1053.6988409757614,None,1055.11563706398,None,./data/Subject_02/Session_03/Exp_data/2020_Aug_02_1308/rec_QA_run_03_block_000_trial_024.wav,02,03,English,A2,True,False,True,False,False,True,True,True,True,True,True,True,No,3,No,No,No,No,2020_Aug_02_1308,nibs_stage_1,3.2.3,59.99447873382777,
3,0,3,0,0,0,0,0,,,,,,,,,,,,,,,,,,1059.1662719249725,None,,,,,,,,,,,,,,,,,,,,,,,,,,02,03,English,A2,True,False,True,False,False,True,True,True,True,True,True,True,No,3,No,No,No,No,2020_Aug_02_1308,nibs_stage_1,3.2.3,59.99447873382777,
3,0,3,0,1,0,1,0,0,0,0,0,,,,,,,,,,,,,,,,,,,,,,,,,Listen to the question and speak out your answer!,1073.2833168506622,None,1073.248880147934,1075.2836589813232,Das Huhn legt jeden Tag ein Ei.,legt,1074.6666890382767,1076.8167600631714,1077.2000979185104,1078.2168169021606,1089.8674870729446,None,1091.2840950489044,None,./data/Subject_02/Session_03/Exp_data/2020_Aug_02_1308/rec_QA_run_03_block_001_trial_000.wav,02,03,English,A2,True,False,True,False,False,True,True,True,True,True,True,True,No,3,No,No,No,No,2020_Aug_02_1308,nibs_stage_1,3.2.3,59.99447873382777,
3,0,3,0,1,0,1,0,1,0,1,0,,,,,,,,,,,,,,,,,,,,,,,,,Listen to the question and speak out your answer!,1094.3182380199432,None,1094.2838430404663,1096.317855834961,Beim Bäcker gibt es täglich frisches Brot.,gibt,1095.7010689973831,1098.317855834961,1098.7012170553207,None,1110.9018260240555,None,1112.3187260627747,None,./data/Subject_02/Session_03/Exp_data/2020_Aug_02_1308/rec_QA_run_03_block_001_trial_001.wav,02,03,English,A2,True,False,True,False,False,True,True,True,True,True,True,True,No,3,No,No,No,No,2020_Aug_02_1308,nibs_stage_1,3.2.3,59.99447873382777,
3,0,3,0,1,0,1,0,2,0,2,0,,,,,,,,,,,,,,,,,,,,,,,,,Listen to the question and speak out your answer!,1115.3522038459778,None,1115.3180780410767,1117.3522069454193,Sie benutzt die Arbeit als Vorwand.,benutzt,1116.7354999780655,None,1119.402300953865,None,1131.9196609258652,None,1133.3363208770752,None,./data/Subject_02/Session_03/Exp_data/2020_Aug_02_1308/rec_QA_run_03_block_001_trial_002.wav,02,03,English,A2,True,False,True,False,False,True,True,True,True,True,True,True,No,3,No,No,No,No,2020_Aug_02_1308,nibs_stage_1,3.2.3,59.99447873382777,
3,0,3,0,1,0,1,0,3,0,3,0,,,,,,,,,,,,,,,,,,,,,,,,,Listen to the question and speak out your answer!,1136.4199810028076,None,1136.3861311674118,1138.419909954071,"Es ist ratsam, auch das Urteil anderer zu hören.",hören,1137.7700229883194,None,1141.33679997921,None,1152.9706698656082,None,1154.3875079154968,None,./data/Subject_02/Session_03/Exp_data/2020_Aug_02_1308/rec_QA_run_03_block_001_trial_003.wav,02,03,English,A2,True,False,True,False,False,True,True,True,True,True,True,True,No,3,No,No,No,No,2020_Aug_02_1308,nibs_stage_1,3.2.3,59.99447873382777,
3,0,3,0,1,0,1,0,4,0,4,0,,,,,,,,,,,,,,,,,,,,,,,,,Listen to the question and speak out your answer!,1157.4566669464111,None,1157.4370571374893,1159.4544348716736,"Er wird seinem Traum folgen, egal was die Leute reden.",reden,1158.8046690225601,1162.2545790672302,1162.6379219293594,None,1174.0218518972397,None,1175.4385719299316,None,./data/Subject_02/Session_03/Exp_data/2020_Aug_02_1308/rec_QA_run_03_block_001_trial_004.wav,02,03,English,A2,True,False,True,False,False,True,True,True,True,True,True,True,No,3,No,No,No,No,2020_Aug_02_1308,nibs_stage_1,3.2.3,59.99447873382777,
3,0,3,0,1,0,1,0,5,0,5,0,,,,,,,,,,,,,,,,,,,,,,,,,Listen to the question and speak out your answer!,1178.5221979618073,None,1178.4880870580673,1180.5221939086914,Alle Passagiere müssen an der Endstation aus dem Zug aussteigen.,aussteigen,1179.9055000543594,None,1184.239066004753,None,1195.106281876564,1196.1230158805847,1196.4896869659424,None,./data/Subject_02/Session_03/Exp_data/2020_Aug_02_1308/rec_QA_run_03_block_001_trial_005.wav,02,03,English,A2,True,False,True,False,False,True,True,True,True,True,True,True,No,3,No,No,No,No,2020_Aug_02_1308,nibs_stage_1,3.2.3,59.99447873382777,
3,0,3,0,1,0,1,0,6,0,6,0,,,,,,,,,,,,,,,,,,,,,,,,,Listen to the question and speak out your answer!,1199.5578980445862,None,1199.5391870737076,1201.556668996811,Ich hielt das Küken vorsichtig in beiden Händen.,hielt,1200.9399420022964,1203.8900859355927,1204.240180850029,None,1216.140755057335,None,1217.557512998581,None,./data/Subject_02/Session_03/Exp_data/2020_Aug_02_1308/rec_QA_run_03_block_001_trial_006.wav,02,03,English,A2,True,False,True,False,False,True,True,True,True,True,True,True,No,3,No,No,No,No,2020_Aug_02_1308,nibs_stage_1,3.2.3,59.99447873382777,
3,0,3,0,1,0,1,0,7,0,7,0,,,,,,,,,,,,,,,,,,,,,,,,,Listen to the question and speak out your answer!,1220.6248829364777,None,1220.590317249298,1222.6244139671326,Viele Zettel sind an der Wand gehängt.,gehängt,1222.0077830553055,None,1224.5745190382004,1225.5912330150604,1237.2085050344467,1238.2252459526062,1238.6252610683441,None,./data/Subject_02/Session_03/Exp_data/2020_Aug_02_1308/rec_QA_run_03_block_001_trial_007.wav,02,03,English,A2,True,False,True,False,False,True,True,True,True,True,True,True,No,3,No,No,No,No,2020_Aug_02_1308,nibs_stage_1,3.2.3,59.99447873382777,
3,0,3,0,1,0,1,0,8,0,8,0,,,,,,,,,,,,,,,,,,,,,,,,,Listen to the question and speak out your answer!,1241.6593749523163,None,1241.6247460842133,1243.658879995346,Nach der Party mussten wir das Haus aufräumen.,aufräumen,1243.0421570539474,None,1246.2090009450912,1247.2257249355316,1258.243019938469,None,1259.6597418785095,None,./data/Subject_02/Session_03/Exp_data/2020_Aug_02_1308/rec_QA_run_03_block_001_trial_008.wav,02,03,English,A2,True,False,True,False,False,True,True,True,True,True,True,True,No,3,No,No,No,No,2020_Aug_02_1308,nibs_stage_1,3.2.3,59.99447873382777,
3,0,3,0,1,0,1,0,9,0,9,0,,,,,,,,,,,,,,,,,,,,,,,,,Listen to the question and speak out your answer!,1262.693526983261,None,1262.675851225853,1264.6933100223541,Der Autor beschrieb Sam als eine sehr nette Person.,beschrieb,1264.076614022255,1267.2934429645538,1267.676787018776,None,1279.2441500425339,1280.2607209682465,1280.660809993744,None,./data/Subject_02/Session_03/Exp_data/2020_Aug_02_1308/rec_QA_run_03_block_001_trial_009.wav,02,03,English,A2,True,False,True,False,False,True,True,True,True,True,True,True,No,3,No,No,No,No,2020_Aug_02_1308,nibs_stage_1,3.2.3,59.99447873382777,
3,0,3,0,1,0,1,0,10,0,10,0,,,,,,,,,,,,,,,,,,,,,,,,,Listen to the question and speak out your answer!,1283.744945049286,None,1283.7102862596512,1285.7444069385529,"Er kann zwanzig Zigarattes pro Tag rauchen, was sehr ungesund ist.",rauchen,1285.0943838357925,None,1289.7279659509659,None,1300.2951599359512,None,1301.711928844452,None,./data/Subject_02/Session_03/Exp_data/2020_Aug_02_1308/rec_QA_run_03_block_001_trial_010.wav,02,03,English,A2,True,False,True,False,False,True,True,True,True,True,True,True,No,3,No,No,No,No,2020_Aug_02_1308,nibs_stage_1,3.2.3,59.99447873382777,
3,0,3,0,1,0,1,0,11,0,11,0,,,,,,,,,,,,,,,,,,,,,,,,,Listen to the question and speak out your answer!,1304.7792749404907,None,1304.7447762489319,1306.778846025467,Der Verletzte braucht dringend einen Arzt zu besuchen.,besuchen,1306.162141919136,1309.2790579795837,1309.6623278856277,None,1321.363098025322,None,1322.7796800136566,None,./data/Subject_02/Session_03/Exp_data/2020_Aug_02_1308/rec_QA_run_03_block_001_trial_011.wav,02,03,English,A2,True,False,True,False,False,True,True,True,True,True,True,True,No,3,No,No,No,No,2020_Aug_02_1308,nibs_stage_1,3.2.3,59.99447873382777,
3,0,3,0,1,0,1,0,12,0,12,0,,,,,,,,,,,,,,,,,,,,,,,,,Listen to the question and speak out your answer!,1325.81382894516,None,1325.7791981697083,1327.813292980194,"Ich versuche, jede Woche ein Buch zu lesen.",lesen,1327.1632679700851,None,1330.5300968885422,1331.5468950271606,1342.3641399145126,None,1343.7808349132538,None,./data/Subject_02/Session_03/Exp_data/2020_Aug_02_1308/rec_QA_run_03_block_001_trial_012.wav,02,03,English,A2,True,False,True,False,False,True,True,True,True,True,True,True,No,3,No,No,No,No,2020_Aug_02_1308,nibs_stage_1,3.2.3,59.99447873382777,
3,0,3,0,1,0,1,0,13,0,13,0,,,,,,,,,,,,,,,,,,,,,,,,,Listen to the question and speak out your answer!,1346.8480069637299,None,1346.8303042650223,1348.8477408885956,Der Artikel hat bereits genügend nützliche Hintergrundinformationen geliefert.,geliefert,1348.231029868126,None,1353.3646310567856,None,1363.4320920705795,None,1364.848599910736,None,./data/Subject_02/Session_03/Exp_data/2020_Aug_02_1308/rec_QA_run_03_block_001_trial_013.wav,02,03,English,A2,True,False,True,False,False,True,True,True,True,True,True,True,No,3,No,No,No,No,2020_Aug_02_1308,nibs_stage_1,3.2.3,59.99447873382777,
3,0,3,0,1,0,1,0,14,0,14,0,,,,,,,,,,,,,,,,,,,,,,,,,Listen to the question and speak out your answer!,1367.899384021759,None,1367.8647791147232,1369.8988509178162,Lange dünne Nudeln nennt man Spaghetti.,nennt,1369.248850941658,None,1372.082340836525,None,1384.4495970010757,None,1385.8665459156036,None,./data/Subject_02/Session_03/Exp_data/2020_Aug_02_1308/rec_QA_run_03_block_001_trial_014.wav,02,03,English,A2,True,False,True,False,False,True,True,True,True,True,True,True,No,3,No,No,No,No,2020_Aug_02_1308,nibs_stage_1,3.2.3,59.99447873382777,
3,0,3,0,1,0,1,0,15,0,15,0,,,,,,,,,,,,,,,,,,,,,,,,,Listen to the question and speak out your answer!,1389.0337970256805,None,1388.999132156372,1391.0334730148315,"Nachdem mein erster Versuch gescheitert war, probierte ich es noch einmal.",probierte,1390.4165860414505,None,1394.8835099935532,1395.9002130031586,1405.61738884449,1406.6341140270233,1407.0341310501099,None,./data/Subject_02/Session_03/Exp_data/2020_Aug_02_1308/rec_QA_run_03_block_001_trial_015.wav,02,03,English,A2,True,False,True,False,False,True,True,True,True,True,True,True,No,3,No,No,No,No,2020_Aug_02_1308,nibs_stage_1,3.2.3,59.99447873382777,
3,0,3,0,1,0,1,0,16,0,16,0,,,,,,,,,,,,,,,,,,,,,,,,,Listen to the question and speak out your answer!,1410.0843739509583,None,1410.0502752065659,1412.0843110084534,"Die Schneiderin änderte das Kleid, weil das Kleid zu groß ist.",änderte,1411.4343379735947,1415.3847579956055,1415.8011590242386,None,1426.6351879835129,1427.6518070697784,1428.0518188476562,None,./data/Subject_02/Session_03/Exp_data/2020_Aug_02_1308/rec_QA_run_03_block_001_trial_016.wav,02,03,English,A2,True,False,True,False,False,True,True,True,True,True,True,True,No,3,No,No,No,No,2020_Aug_02_1308,nibs_stage_1,3.2.3,59.99447873382777,
3,0,3,0,1,0,1,0,17,0,17,0,,,,,,,,,,,,,,,,,,,,,,,,,Listen to the question and speak out your answer!,1431.1026849746704,None,1431.0680540800095,1433.1021778583527,Der Fallschirm wird im Fall geöffnet.,geöffnet,1432.4520579576492,1434.6356120109558,1435.0522609949112,None,1447.6530829668045,None,1449.0696740150452,None,./data/Subject_02/Session_03/Exp_data/2020_Aug_02_1308/rec_QA_run_03_block_001_trial_017.wav,02,03,English,A2,True,False,True,False,False,True,True,True,True,True,True,True,No,3,No,No,No,No,2020_Aug_02_1308,nibs_stage_1,3.2.3,59.99447873382777,
3,0,3,0,1,0,1,0,18,0,18,0,,,,,,,,,,,,,,,,,,,,,,,,,Listen to the question and speak out your answer!,1452.1367719173431,None,1452.119161248207,1454.1366920471191,Können Sie mir auf Hundert Euro herausgeben?,herausgeben,1453.5199018716812,None,1456.620129942894,None,1468.7207289934158,None,1470.1374628543854,None,./data/Subject_02/Session_03/Exp_data/2020_Aug_02_1308/rec_QA_run_03_block_001_trial_018.wav,02,03,English,A2,True,False,True,False,False,True,True,True,True,True,True,True,No,3,No,No,No,No,2020_Aug_02_1308,nibs_stage_1,3.2.3,59.99447873382777,
3,0,3,0,1,0,1,0,19,0,19,0,,,,,,,,,,,,,,,,,,,,,,,,,Listen to the question and speak out your answer!,1473.2049100399017,None,1473.1702680587769,1475.2043828964233,Bitte schließ die Tür!,schließ,1474.587679028511,1476.0044128894806,1476.3877650499344,None,1489.7884629964828,None,1491.2052190303802,None,./data/Subject_02/Session_03/Exp_data/2020_Aug_02_1308/rec_QA_run_03_block_001_trial_019.wav,02,03,English,A2,True,False,True,False,False,True,True,True,True,True,True,True,No,3,No,No,No,No,2020_Aug_02_1308,nibs_stage_1,3.2.3,59.99447873382777,
3,0,3,0,1,0,1,0,20,0,20,0,,,,,,,,,,,,,,,,,,,,,,,,,Listen to the question and speak out your answer!,1494.2398829460144,None,1494.2213760614395,1496.239420890808,"Wenn Sie nicht aufpassen, könnten Sie sich die Finger verletzen.",aufpassen,1495.6221309900284,None,1499.3223239183426,1500.3390209674835,1510.8229540586472,1511.839555978775,1512.239667892456,None,./data/Subject_02/Session_03/Exp_data/2020_Aug_02_1308/rec_QA_run_03_block_001_trial_020.wav,02,03,English,A2,True,False,True,False,False,True,True,True,True,True,True,True,No,3,No,No,No,No,2020_Aug_02_1308,nibs_stage_1,3.2.3,59.99447873382777,
3,0,3,0,1,0,1,0,21,0,21,0,,,,,,,,,,,,,,,,,,,,,,,,,Listen to the question and speak out your answer!,1515.3238129615784,None,1515.2893251180649,1517.3231859207153,"Er merkte sofort, dass wir versuchten, ihn zu belügen.",merkte,1516.70669901371,None,1520.6067720651627,None,1531.9073849916458,1532.924106836319,1533.3241288661957,None,./data/Subject_02/Session_03/Exp_data/2020_Aug_02_1308/rec_QA_run_03_block_001_trial_021.wav,02,03,English,A2,True,False,True,False,False,True,True,True,True,True,True,True,No,3,No,No,No,No,2020_Aug_02_1308,nibs_stage_1,3.2.3,59.99447873382777,
3,0,3,0,1,0,1,0,22,0,22,0,,,,,,,,,,,,,,,,,,,,,,,,,Listen to the question and speak out your answer!,1536.3582298755646,None,1536.323608160019,1538.35768699646,"Das Mädchen wollte etwas sagen, also hob sie ihre Hand.",sagen,1537.740996003151,1541.2245240211487,1541.6079479455948,None,1552.9418300390244,None,1554.358540058136,None,./data/Subject_02/Session_03/Exp_data/2020_Aug_02_1308/rec_QA_run_03_block_001_trial_022.wav,02,03,English,A2,True,False,True,False,False,True,True,True,True,True,True,True,No,3,No,No,No,No,2020_Aug_02_1308,nibs_stage_1,3.2.3,59.99447873382777,
3,0,3,0,1,0,1,0,23,0,23,0,,,,,,,,,,,,,,,,,,,,,,,,,Listen to the question and speak out your answer!,1557.4092009067535,None,1557.3747001886368,1559.409117937088,Simon hat riesige Bilder gemalt.,gemalt,1558.7587670087814,None,1561.3589259386063,1562.3756349086761,1573.9596668481827,None,1575.3763298988342,None,./data/Subject_02/Session_03/Exp_data/2020_Aug_02_1308/rec_QA_run_03_block_001_trial_023.wav,02,03,English,A2,True,False,True,False,False,True,True,True,True,True,True,True,No,3,No,No,No,No,2020_Aug_02_1308,nibs_stage_1,3.2.3,59.99447873382777,
3,0,3,0,1,0,1,0,24,0,24,0,,,,,,,,,,,,,,,,,,,,,,,,,Listen to the question and speak out your answer!,1578.4443399906158,None,1578.425749182701,1580.4433879852295,"Meine Eltern schauten vorbei, um sich meinen neuen Garten anzusehen.",anzusehen,1579.826742053032,None,1584.2601228952408,None,1595.010694861412,None,1596.4274339675903,None,./data/Subject_02/Session_03/Exp_data/2020_Aug_02_1308/rec_QA_run_03_block_001_trial_024.wav,02,03,English,A2,True,False,True,False,False,True,True,True,True,True,True,True,No,3,No,No,No,No,2020_Aug_02_1308,nibs_stage_1,3.2.3,59.99447873382777,
