run.thisRepN,run.thisTrialN,run.thisN,run.thisIndex,QA_block.thisRepN,QA_block.thisTrialN,QA_block.thisN,QA_block.thisIndex,QA_trial.thisRepN,QA_trial.thisTrialN,QA_trial.thisN,QA_trial.thisIndex,post_trial.thisRepN,post_trial.thisTrialN,post_trial.thisN,post_trial.thisIndex,Cali_de_post_rec_text.text,Cali_de_post_rec_text.started,Cali_de_post_rec_text.stopped,Cali_de_post_rec_beep_hint.started,Cali_de_post_rec_beep_hint.stopped,Cali_de_post_rec_question_text.text,Cali_de_post_rec_question_text.started,Cali_de_post_rec_question_text.stopped,Cali_de_post_rec_beep_start.started,Cali_de_post_rec_beep_start.stopped,Cali_de_post_rec_beep_end.started,Cali_de_post_rec_beep_end.stopped,Cali_de_post_rec_break.started,Cali_de_post_rec_break.stopped,filename,the_end_text.started,the_end_text.stopped,the_end_text.text,participant,session,First language,German level,Full_screen,Instruction,Intro,Artifact,Cali_pre,Fade_in_out,Artifact_within,Resting_State,QA,Pause,Cali_post,End,Breakpoint_Cali_pre_trial,Breakpoint_Run,Breakpoint_RS_block,Breakpoint_QA_block,Breakpoint_QA_trial,Breakpoint_Cali_post_trial,date,expName,psychopyVersion,frameRate,
0,0,0,0,0,0,0,0,,,,,,,,,,,,,,,,,,,,,,,,,,,02,03,English,A2,True,False,False,False,False,False,False,False,False,False,True,True,No,No,No,No,No,No,2020_Aug_02_1335,nibs_stage_1,3.2.3,59.99336316096623,
0,0,0,0,1,0,1,0,,,,,,,,,,,,,,,,,,,,,,,,,,,02,03,English,A2,True,False,False,False,False,False,False,False,False,False,True,True,No,No,No,No,No,No,2020_Aug_02_1335,nibs_stage_1,3.2.3,59.99336316096623,
0,0,0,0,,,,,,,,,,,,,,,,,,,,,,,,,,,,,,,02,03,English,A2,True,False,False,False,False,False,False,False,False,False,True,True,No,No,No,No,No,No,2020_Aug_02_1335,nibs_stage_1,3.2.3,59.99336316096623,
1,0,1,0,0,0,0,0,,,,,,,,,,,,,,,,,,,,,,,,,,,02,03,English,A2,True,False,False,False,False,False,False,False,False,False,True,True,No,No,No,No,No,No,2020_Aug_02_1335,nibs_stage_1,3.2.3,59.99336316096623,
1,0,1,0,1,0,1,0,,,,,,,,,,,,,,,,,,,,,,,,,,,02,03,English,A2,True,False,False,False,False,False,False,False,False,False,True,True,No,No,No,No,No,No,2020_Aug_02_1335,nibs_stage_1,3.2.3,59.99336316096623,
1,0,1,0,,,,,,,,,,,,,,,,,,,,,,,,,,,,,,,02,03,English,A2,True,False,False,False,False,False,False,False,False,False,True,True,No,No,No,No,No,No,2020_Aug_02_1335,nibs_stage_1,3.2.3,59.99336316096623,
2,0,2,0,0,0,0,0,,,,,,,,,,,,,,,,,,,,,,,,,,,02,03,English,A2,True,False,False,False,False,False,False,False,False,False,True,True,No,No,No,No,No,No,2020_Aug_02_1335,nibs_stage_1,3.2.3,59.99336316096623,
2,0,2,0,1,0,1,0,,,,,,,,,,,,,,,,,,,,,,,,,,,02,03,English,A2,True,False,False,False,False,False,False,False,False,False,True,True,No,No,No,No,No,No,2020_Aug_02_1335,nibs_stage_1,3.2.3,59.99336316096623,
2,0,2,0,,,,,,,,,,,,,,,,,,,,,,,,,,,,,,,02,03,English,A2,True,False,False,False,False,False,False,False,False,False,True,True,No,No,No,No,No,No,2020_Aug_02_1335,nibs_stage_1,3.2.3,59.99336316096623,
3,0,3,0,0,0,0,0,,,,,,,,,,,,,,,,,,,,,,,,,,,02,03,English,A2,True,False,False,False,False,False,False,False,False,False,True,True,No,No,No,No,No,No,2020_Aug_02_1335,nibs_stage_1,3.2.3,59.99336316096623,
3,0,3,0,1,0,1,0,,,,,,,,,,,,,,,,,,,,,,,,,,,02,03,English,A2,True,False,False,False,False,False,False,False,False,False,True,True,No,No,No,No,No,No,2020_Aug_02_1335,nibs_stage_1,3.2.3,59.99336316096623,
3,0,3,0,,,,,,,,,,,,,,,,,,,,,,,,,,,,,,,02,03,English,A2,True,False,False,False,False,False,False,False,False,False,True,True,No,No,No,No,No,No,2020_Aug_02_1335,nibs_stage_1,3.2.3,59.99336316096623,
,,,,,,,,,,,,0,0,0,0,,64.70008897781372,None,64.69767806529998,66.70008087158203,"Ich glaube, es geht um ein rotes Auto.",66.08346390724182,83.68441200256348,67.48343784809113,None,80.28419597148896,None,81.68419790267944,83.68441200256348,./data/Subject_02/Session_03/Exp_data/2020_Aug_02_1335/rec_cali_de_post_trial_000.wav,,,,02,03,English,A2,True,False,False,False,False,False,False,False,False,False,True,True,No,No,No,No,No,No,2020_Aug_02_1335,nibs_stage_1,3.2.3,59.99336316096623,
,,,,,,,,,,,,1,0,1,0,,86.71797895431519,None,86.69945914745331,88.70133090019226,Eine Woche hat sieben Tage.,88.1014289855957,105.7023229598999,89.5013619184494,None,102.30214388370514,None,103.70209693908691,105.7023229598999,./data/Subject_02/Session_03/Exp_data/2020_Aug_02_1335/rec_cali_de_post_trial_001.wav,,,,02,03,English,A2,True,False,False,False,False,False,False,False,False,False,True,True,No,No,No,No,No,No,2020_Aug_02_1335,nibs_stage_1,3.2.3,59.99336316096623,
,,,,,,,,,,,,2,0,2,0,,108.73578786849976,None,108.71720106601715,110.71916198730469,Manche Politiker wollen den Frieden auf Erden sichern.,110.11905288696289,127.72011303901672,111.51918895244599,112.51936793327332,124.3198879480362,None,125.71996188163757,127.72011303901672,./data/Subject_02/Session_03/Exp_data/2020_Aug_02_1335/rec_cali_de_post_trial_002.wav,,,,02,03,English,A2,True,False,False,False,False,False,False,False,False,False,True,True,No,No,No,No,No,No,2020_Aug_02_1335,nibs_stage_1,3.2.3,59.99336316096623,
,,,,,,,,,,,,3,0,3,0,,130.7535319328308,None,130.7351241827011,132.73698687553406,Jede Münze hat zwei Seiten.,132.13694286346436,149.73785090446472,133.53703291416167,None,146.33760578632354,147.33774495124817,147.73775601387024,149.73785090446472,./data/Subject_02/Session_03/Exp_data/2020_Aug_02_1335/rec_cali_de_post_trial_003.wav,,,,02,03,English,A2,True,False,False,False,False,False,False,False,False,False,True,True,No,No,No,No,No,No,2020_Aug_02_1335,nibs_stage_1,3.2.3,59.99336316096623,
,,,,,,,,,,,,4,0,4,0,,152.77141499519348,None,152.7529190301895,154.75508403778076,Jetzt liest er seiner Mutter eine Geschichte vor.,154.15508008003235,171.75620794296265,155.55503780841826,None,168.3559499502182,None,169.73914790153503,171.73932194709778,./data/Subject_02/Session_03/Exp_data/2020_Aug_02_1335/rec_cali_de_post_trial_004.wav,,,,02,03,English,A2,True,False,False,False,False,False,False,False,False,False,True,True,No,No,No,No,No,No,2020_Aug_02_1335,nibs_stage_1,3.2.3,59.99336316096623,
,,,,,,,,,,,,5,0,5,0,,174.7895770072937,None,174.77096302509307,176.77290201187134,Der Gipfel von Everset ist der höchste der Welt.,176.17288994789124,193.77379393577576,177.5730078935623,178.57299995422363,190.3735438108444,None,191.77368903160095,193.77379393577576,./data/Subject_02/Session_03/Exp_data/2020_Aug_02_1335/rec_cali_de_post_trial_005.wav,,,,02,03,English,A2,True,False,False,False,False,False,False,False,False,False,True,True,No,No,No,No,No,No,2020_Aug_02_1335,nibs_stage_1,3.2.3,59.99336316096623,
,,,,,,,,,,,,6,0,6,0,,196.80718803405762,None,196.7888122320175,198.7907199859619,"In der Schule lernen die Kinder lesen, schreiben und rechnen.",198.19068694114685,215.79157900810242,199.5907228708267,200.5908010005951,212.39137680530547,213.39147186279297,213.7914969921112,215.79157900810242,./data/Subject_02/Session_03/Exp_data/2020_Aug_02_1335/rec_cali_de_post_trial_006.wav,,,,02,03,English,A2,True,False,False,False,False,False,False,False,False,False,True,True,No,No,No,No,No,No,2020_Aug_02_1335,nibs_stage_1,3.2.3,59.99336316096623,
,,,,,,,,,,,,7,0,7,0,,218.8249900341034,None,218.80675513744353,220.808660030365,Großbritanien tritt aus der EU aus.,220.20849800109863,237.8094048500061,221.60886080265044,None,234.40918977260588,235.4092299938202,235.80924105644226,237.8094048500061,./data/Subject_02/Session_03/Exp_data/2020_Aug_02_1335/rec_cali_de_post_trial_007.wav,,,,02,03,English,A2,True,False,False,False,False,False,False,False,False,False,True,True,No,No,No,No,No,No,2020_Aug_02_1335,nibs_stage_1,3.2.3,59.99336316096623,
,,,,,,,,,,,,8,0,8,0,,240.84286403656006,None,240.82467324733733,242.8265299797058,Früher haben in Europa und Asien Neandertaler gelebt.,242.22627806663513,259.8272280693054,243.62662489414214,244.62645602226257,256.42725093364714,None,257.82711601257324,259.8272280693054,./data/Subject_02/Session_03/Exp_data/2020_Aug_02_1335/rec_cali_de_post_trial_008.wav,,,,02,03,English,A2,True,False,False,False,False,False,False,False,False,False,True,True,No,No,No,No,No,No,2020_Aug_02_1335,nibs_stage_1,3.2.3,59.99336316096623,
,,,,,,,,,,,,9,0,9,0,,262.8605399131775,None,262.84240515232085,264.8442008495331,Der frühe Vogel fängt den Wurm.,264.2440149784088,281.84507989883423,265.64419395923613,266.64427185058594,278.44488580226897,279.44485998153687,279.8613979816437,281.86194801330566,./data/Subject_02/Session_03/Exp_data/2020_Aug_02_1335/rec_cali_de_post_trial_009.wav,,,,02,03,English,A2,True,False,False,False,False,False,False,False,False,False,True,True,No,No,No,No,No,No,2020_Aug_02_1335,nibs_stage_1,3.2.3,59.99336316096623,
,,,,,,,,,,,,,,,,,,,,,,,,,,,,,,,284.8786680698395,None," This experiment is finished. 
Thanks for your participation.",,,,,,,,,,,,,,,,,,,,,,,,,,,
