run.thisRepN,run.thisTrialN,run.thisN,run.thisIndex,QA_block.thisRepN,QA_block.thisTrialN,QA_block.thisN,QA_block.thisIndex,QA_trial.thisRepN,QA_trial.thisTrialN,QA_trial.thisN,QA_trial.thisIndex,fade_in_text.text,fade_in_text.started,fade_in_text.stopped,RS_intro_title.started,RS_intro_title.stopped,RS_intro_text.text,RS_intro_text.started,RS_intro_text.stopped,RS_intro_audio.started,RS_intro_audio.stopped,RS_rec_text.text,RS_rec_text.started,RS_rec_text.stopped,Pause_cont.started,Pause_cont.stopped,QA_intro_title.started,QA_intro_title.stopped,QA_intro_text.text,QA_intro_text.started,QA_intro_text.stopped,QA_intro_audio.started,QA_intro_audio.stopped,QA_intro_cont.started,QA_intro_cont.stopped,QA_rec_text.text,QA_rec_text.started,QA_rec_text.stopped,QA_rec_beep_hint.started,QA_rec_beep_hint.stopped,QA_rec_question.sen_text,QA_rec_question.cen_text,QA_rec_question.started,QA_rec_question.stopped,QA_rec_beep_start.started,QA_rec_beep_start.stopped,QA_rec_beep_end.started,QA_rec_beep_end.stopped,QA_rec_break.started,QA_rec_break.stopped,filename,participant,session,First language,German level,Full_screen,Instruction,Intro,Artifact,Cali_pre,Fade_in_out,Artifact_within,Resting_State,QA,Pause,Cali_post,End,Breakpoint_Cali_pre_trial,Breakpoint_Run,Breakpoint_RS_block,Breakpoint_QA_block,Breakpoint_QA_trial,Breakpoint_Cali_post_trial,date,expName,psychopyVersion,frameRate,
3,0,3,0,0,0,0,0,0,0,0,0,Please remain seated until further instruction via the earphone.,67.84322500228882,None,277.30436301231384,None," - Task: Keep seated and relaxed with either      
             opening or closing eyes                  
 - Beep sound with decreasing pitch: Block finish 
",277.30436301231384,None,277.28930430412294,None,"Please keep relaxed and open your eyes.
Note: Blinking is allowed.",300.32235312461853,480.3318340778351,483.71510910987854,None,505.06654500961304,545.0850141048431," - Task: Listen to the question& Speak out answer 
 - Melodious beep sound: Trial start              
 - Silent sound (blank): censored word            
 - Beep sound with increasing pitch: Rec. start   
 - Beep sound with decreasing pitch: Rec. finish  
",505.06654500961304,545.0850141048431,505.05182390213014,None,544.4515659809113,None,Listen to the question and speak out your answer!,550.3855309486389,None,550.3708479881286,552.385665178299,Die Ergebnisse werden auf einer Skala von eins bis zehn angezeigt.,angezeigt,551.7689948558807,555.9692130088806,556.3692269802093,None,566.9697359085083,None,568.3697180747986,569.3698320388794,./data/Subject_06/Session_01/Exp_data/2020_Jul_29_1217/rec_QA_run_03_block_000_trial_000.wav,06,01,Dutch,A2,True,False,True,False,False,True,True,True,True,True,True,True,No,3,No,No,No,No,2020_Jul_29_1217,nibs_stage_1,3.2.3,59.92616214609837,
3,0,3,0,0,0,0,0,1,0,1,0,,,,,,,,,,,,,,,,,,,,,,,,,Listen to the question and speak out your answer!,571.403195142746,None,571.3880892276763,573.4034149646759,"Um Omeltte zu machen, werde ich die Eier verrühren und dann braten.",braten,572.7702758789062,576.6369831562042,577.0538228034973,None,587.9709249019622,None,589.3709051609039,590.3709721565247,./data/Subject_06/Session_01/Exp_data/2020_Jul_29_1217/rec_QA_run_03_block_000_trial_001.wav,06,01,Dutch,A2,True,False,True,False,False,True,True,True,True,True,True,True,No,3,No,No,No,No,2020_Jul_29_1217,nibs_stage_1,3.2.3,59.92616214609837,
3,0,3,0,0,0,0,0,2,0,2,0,,,,,,,,,,,,,,,,,,,,,,,,,Listen to the question and speak out your answer!,592.4209690093994,None,592.4059031486511,594.4209470748901,"Ich habe das Formular ausgefüllt, um mich für den Kurs anzumelden.",ausgefüllt,593.7875259399414,None,598.2877748489379,None,608.988560962677,None,610.3887150287628,611.3887679576874,./data/Subject_06/Session_01/Exp_data/2020_Jul_29_1217/rec_QA_run_03_block_000_trial_002.wav,06,01,Dutch,A2,True,False,True,False,False,True,True,True,True,True,True,True,No,3,No,No,No,No,2020_Jul_29_1217,nibs_stage_1,3.2.3,59.92616214609837,
3,0,3,0,0,0,0,0,3,0,3,0,,,,,,,,,,,,,,,,,,,,,,,,,Listen to the question and speak out your answer!,613.4387609958649,None,613.423689174652,615.4391741752625,Die Katzen jagen Mäuse.,jagen,614.8053968429565,None,616.9892459392547,None,630.0065958976745,631.0066180229187,631.4068381786346,632.4065489768982,./data/Subject_06/Session_01/Exp_data/2020_Jul_29_1217/rec_QA_run_03_block_000_trial_003.wav,06,01,Dutch,A2,True,False,True,False,False,True,True,True,True,True,True,True,No,3,No,No,No,No,2020_Jul_29_1217,nibs_stage_1,3.2.3,59.92616214609837,
3,0,3,0,0,0,0,0,4,0,4,0,,,,,,,,,,,,,,,,,,,,,,,,,Listen to the question and speak out your answer!,634.4563791751862,None,634.4421892642974,636.4565470218658,Wir haben den Empfang der Sendung bestätigt.,bestätigt,635.83977394104,638.3402061462402,638.7571058750152,None,651.0406618595123,None,652.4407160282135,653.4410181045532,./data/Subject_06/Session_01/Exp_data/2020_Jul_29_1217/rec_QA_run_03_block_000_trial_004.wav,06,01,Dutch,A2,True,False,True,False,False,True,True,True,True,True,True,True,No,3,No,No,No,No,2020_Jul_29_1217,nibs_stage_1,3.2.3,59.92616214609837,
3,0,3,0,0,0,0,0,5,0,5,0,,,,,,,,,,,,,,,,,,,,,,,,,Listen to the question and speak out your answer!,655.4742970466614,None,655.4592752933502,657.4743461608887,Der Test dauert nur fünfzehn Minuten.,dauert,656.8408868789672,659.2576820850372,659.6744509220123,None,672.0418038845062,None,673.4418649673462,674.4424240589142,./data/Subject_06/Session_01/Exp_data/2020_Jul_29_1217/rec_QA_run_03_block_000_trial_005.wav,06,01,Dutch,A2,True,False,True,False,False,True,True,True,True,True,True,True,No,3,No,No,No,No,2020_Jul_29_1217,nibs_stage_1,3.2.3,59.92616214609837,
3,0,3,0,0,0,0,0,6,0,6,0,,,,,,,,,,,,,,,,,,,,,,,,,Listen to the question and speak out your answer!,676.508712053299,None,676.4936953067779,678.5089859962463,Lisa kann schon mit großen Zahlen rechnen.,rechnen,677.8756177902221,None,680.9256418228149,None,693.0763798236846,694.0762960910797,694.476310968399,695.4769310951233,./data/Subject_06/Session_01/Exp_data/2020_Jul_29_1217/rec_QA_run_03_block_000_trial_006.wav,06,01,Dutch,A2,True,False,True,False,False,True,True,True,True,True,True,True,No,3,No,No,No,No,2020_Jul_29_1217,nibs_stage_1,3.2.3,59.92616214609837,
3,0,3,0,0,0,0,0,7,0,7,0,,,,,,,,,,,,,,,,,,,,,,,,,Listen to the question and speak out your answer!,697.526563167572,None,697.5114322185516,699.5266180038452,"Ich darf Sie bitten, meinem Antrag zu entsprechen.",bitten,698.8932297706604,None,702.1103778362274,703.1101219654083,714.0940278053283,None,715.4941530227661,716.4942691326141,./data/Subject_06/Session_01/Exp_data/2020_Jul_29_1217/rec_QA_run_03_block_000_trial_007.wav,06,01,Dutch,A2,True,False,True,False,False,True,True,True,True,True,True,True,No,3,No,No,No,No,2020_Jul_29_1217,nibs_stage_1,3.2.3,59.92616214609837,
3,0,3,0,0,0,0,0,8,0,8,0,,,,,,,,,,,,,,,,,,,,,,,,,Listen to the question and speak out your answer!,718.5454251766205,None,718.5292182445526,720.5442731380463,Warum antwortest du nicht auf meine Frage?,antwortest,719.9110079288482,None,723.0278599739074,724.0278980731964,735.1121597766876,None,736.5120310783386,737.5125391483307,./data/Subject_06/Session_01/Exp_data/2020_Jul_29_1217/rec_QA_run_03_block_000_trial_008.wav,06,01,Dutch,A2,True,False,True,False,False,True,True,True,True,True,True,True,No,3,No,No,No,No,2020_Jul_29_1217,nibs_stage_1,3.2.3,59.92616214609837,
3,0,3,0,0,0,0,0,9,0,9,0,,,,,,,,,,,,,,,,,,,,,,,,,Listen to the question and speak out your answer!,739.5622899532318,None,739.5472302913665,741.5625419616699,"Da Mark gestern sehr spät aufgestanden ist, wird er heute nicht früh aufstehen.",aufstehen,740.9456818580627,745.5962820053101,745.9959409713745,None,756.1465189933776,None,757.5467791557312,758.5468981266022,./data/Subject_06/Session_01/Exp_data/2020_Jul_29_1217/rec_QA_run_03_block_000_trial_009.wav,06,01,Dutch,A2,True,False,True,False,False,True,True,True,True,True,True,True,No,3,No,No,No,No,2020_Jul_29_1217,nibs_stage_1,3.2.3,59.92616214609837,
3,0,3,0,0,0,0,0,10,0,10,0,,,,,,,,,,,,,,,,,,,,,,,,,Listen to the question and speak out your answer!,760.5801510810852,None,760.5651553153991,762.5800940990448,"Nur wenn mein Haar schmutzig ist, werde ich es bürsten.",bürsten,761.9468257904052,764.9802739620209,765.3972089767456,None,777.147764968872,None,778.5643141269684,779.5644199848175,./data/Subject_06/Session_01/Exp_data/2020_Jul_29_1217/rec_QA_run_03_block_000_trial_010.wav,06,01,Dutch,A2,True,False,True,False,False,True,True,True,True,True,True,True,No,3,No,No,No,No,2020_Jul_29_1217,nibs_stage_1,3.2.3,59.92616214609837,
3,0,3,0,0,0,0,0,11,0,11,0,,,,,,,,,,,,,,,,,,,,,,,,,Listen to the question and speak out your answer!,781.5977799892426,None,781.5826771736145,783.5978591442108,"Sie sollten mehr Obst essen, Vitamin C wird Ihnen bei Erkältungen helfen.",helfen,782.9646127700805,787.5815210342407,787.9981828212738,None,798.1654279708862,None,799.5655741691589,800.5655369758606,./data/Subject_06/Session_01/Exp_data/2020_Jul_29_1217/rec_QA_run_03_block_000_trial_011.wav,06,01,Dutch,A2,True,False,True,False,False,True,True,True,True,True,True,True,No,3,No,No,No,No,2020_Jul_29_1217,nibs_stage_1,3.2.3,59.92616214609837,
3,0,3,0,0,0,0,0,12,0,12,0,,,,,,,,,,,,,,,,,,,,,,,,,Listen to the question and speak out your answer!,802.6163220405579,None,802.6004691600799,804.6325421333313,"Im Unterricht habe ich das Wichtige notiert, was der Lehrer gesagt.",notiert,803.9823849678039,808.0325040817261,808.4492068767547,None,819.1832108974456,None,820.5832769870758,821.5832421779633,./data/Subject_06/Session_01/Exp_data/2020_Jul_29_1217/rec_QA_run_03_block_000_trial_012.wav,06,01,Dutch,A2,True,False,True,False,False,True,True,True,True,True,True,True,No,3,No,No,No,No,2020_Jul_29_1217,nibs_stage_1,3.2.3,59.92616214609837,
3,0,3,0,0,0,0,0,13,0,13,0,,,,,,,,,,,,,,,,,,,,,,,,,Listen to the question and speak out your answer!,823.6336901187897,None,823.6182332515716,825.6335110664368,Sam trinkt gerne eine Tasse Kaffee mit einem Stück Kuchen,trinkt,825.0003707885742,None,828.9503629684448,None,840.2014139175415,None,841.6010220050812,842.6011121273041,./data/Subject_06/Session_01/Exp_data/2020_Jul_29_1217/rec_QA_run_03_block_000_trial_013.wav,06,01,Dutch,A2,True,False,True,False,False,True,True,True,True,True,True,True,No,3,No,No,No,No,2020_Jul_29_1217,nibs_stage_1,3.2.3,59.92616214609837,
3,0,3,0,0,0,0,0,14,0,14,0,,,,,,,,,,,,,,,,,,,,,,,,,Listen to the question and speak out your answer!,844.6678919792175,None,844.6529312610626,846.684427022934,"Wir müssen genau planen, was wir tun wollen.",planen,846.0513749599456,848.7512969970703,849.1345658779144,850.1512680053711,861.2351217746734,862.2519171237946,862.6519379615784,None,./data/Subject_06/Session_01/Exp_data/2020_Jul_29_1217/rec_QA_run_03_block_000_trial_014.wav,06,01,Dutch,A2,True,False,True,False,False,True,True,True,True,True,True,True,No,3,No,No,No,No,2020_Jul_29_1217,nibs_stage_1,3.2.3,59.92616214609837,
3,0,3,0,0,0,0,0,15,0,15,0,,,,,,,,,,,,,,,,,,,,,,,,,Listen to the question and speak out your answer!,865.6857130527496,None,865.6703763484954,867.7191059589386,Ein Arzt behandelt kranke Leute in einer Praxis oder im Krankenhaus.,behandelt,867.0688567638397,None,871.8690169334411,None,882.2696907997131,None,883.6863830089569,None,./data/Subject_06/Session_01/Exp_data/2020_Jul_29_1217/rec_QA_run_03_block_000_trial_015.wav,06,01,Dutch,A2,True,False,True,False,False,True,True,True,True,True,True,True,No,3,No,No,No,No,2020_Jul_29_1217,nibs_stage_1,3.2.3,59.92616214609837,
3,0,3,0,0,0,0,0,16,0,16,0,,,,,,,,,,,,,,,,,,,,,,,,,Listen to the question and speak out your answer!,886.7201380729675,None,886.7047391414642,888.7533111572266,Auf der Youtube kann man Videos anschauen.,anschauen,888.1033258914947,890.6870250701904,891.0701408863067,None,903.3041148662567,904.3208291530609,904.7208540439606,None,./data/Subject_06/Session_01/Exp_data/2020_Jul_29_1217/rec_QA_run_03_block_000_trial_016.wav,06,01,Dutch,A2,True,False,True,False,False,True,True,True,True,True,True,True,No,3,No,No,No,No,2020_Jul_29_1217,nibs_stage_1,3.2.3,59.92616214609837,
3,0,3,0,0,0,0,0,17,0,17,0,,,,,,,,,,,,,,,,,,,,,,,,,Listen to the question and speak out your answer!,907.7542910575867,None,907.739203262329,909.7877690792084,Der Läufer hat seine Konkurrenten mühelos geschlagen.,geschlagen,909.1377568721771,912.2881700992584,912.6712749481201,None,924.3386168956756,None,925.7552590370178,None,./data/Subject_06/Session_01/Exp_data/2020_Jul_29_1217/rec_QA_run_03_block_000_trial_017.wav,06,01,Dutch,A2,True,False,True,False,False,True,True,True,True,True,True,True,No,3,No,No,No,No,2020_Jul_29_1217,nibs_stage_1,3.2.3,59.92616214609837,
3,0,3,0,0,0,0,0,18,0,18,0,,,,,,,,,,,,,,,,,,,,,,,,,Listen to the question and speak out your answer!,928.7887260913849,None,928.7736101627349,930.8222050666809,"Siehst du! Ich habe dir gesagt, dass es regnen würde.",gesagt,930.1722047805786,933.5890309810638,933.9723968982696,None,945.3730028152465,946.3897290229797,946.7897419929504,None,./data/Subject_06/Session_01/Exp_data/2020_Jul_29_1217/rec_QA_run_03_block_000_trial_018.wav,06,01,Dutch,A2,True,False,True,False,False,True,True,True,True,True,True,True,No,3,No,No,No,No,2020_Jul_29_1217,nibs_stage_1,3.2.3,59.92616214609837,
3,0,3,0,0,0,0,0,19,0,19,0,,,,,,,,,,,,,,,,,,,,,,,,,Listen to the question and speak out your answer!,949.8405201435089,None,949.8080502033233,951.8399930000305,"Schauen Sie nach draußen, der Schnee fällt.",fällt,951.1899829387664,953.7737550735474,954.1900878429412,955.206845998764,966.3909037590026,967.4075310230255,967.8075230121613,None,./data/Subject_06/Session_01/Exp_data/2020_Jul_29_1217/rec_QA_run_03_block_000_trial_019.wav,06,01,Dutch,A2,True,False,True,False,False,True,True,True,True,True,True,True,No,3,No,No,No,No,2020_Jul_29_1217,nibs_stage_1,3.2.3,59.92616214609837,
3,0,3,0,0,0,0,0,20,0,20,0,,,,,,,,,,,,,,,,,,,,,,,,,Listen to the question and speak out your answer!,970.8583581447601,None,970.8258212089538,972.8578729629517,Ich schnitt das Fleisch in Würfel.,schnitt,972.2077608585357,974.1244330406189,974.5412037849426,None,987.4088178157806,None,988.8252069950104,None,./data/Subject_06/Session_01/Exp_data/2020_Jul_29_1217/rec_QA_run_03_block_000_trial_020.wav,06,01,Dutch,A2,True,False,True,False,False,True,True,True,True,True,True,True,No,3,No,No,No,No,2020_Jul_29_1217,nibs_stage_1,3.2.3,59.92616214609837,
3,0,3,0,0,0,0,0,21,0,21,0,,,,,,,,,,,,,,,,,,,,,,,,,Listen to the question and speak out your answer!,991.876058101654,None,991.8436053276062,993.8755750656128,Ich möchte meinen tiefen Dank für seine Hilfe aussprechen.,aussprechen,993.2256818294525,None,996.9926717758178,None,1008.4263599395751,1009.4430940151215,1009.8430750370026,None,./data/Subject_06/Session_01/Exp_data/2020_Jul_29_1217/rec_QA_run_03_block_000_trial_021.wav,06,01,Dutch,A2,True,False,True,False,False,True,True,True,True,True,True,True,No,3,No,No,No,No,2020_Jul_29_1217,nibs_stage_1,3.2.3,59.92616214609837,
3,0,3,0,0,0,0,0,22,0,22,0,,,,,,,,,,,,,,,,,,,,,,,,,Listen to the question and speak out your answer!,1012.8933329582214,None,1012.8613923072814,1014.893541097641,Diesen Irrtum musste er teuer bezahlen.,bezahlen,1014.2433279037475,1016.6267869472504,1017.0434768676757,None,1029.4442329883575,1030.4608941078186,1030.8609280586243,None,./data/Subject_06/Session_01/Exp_data/2020_Jul_29_1217/rec_QA_run_03_block_000_trial_022.wav,06,01,Dutch,A2,True,False,True,False,False,True,True,True,True,True,True,True,No,3,No,No,No,No,2020_Jul_29_1217,nibs_stage_1,3.2.3,59.92616214609837,
3,0,3,0,0,0,0,0,23,0,23,0,,,,,,,,,,,,,,,,,,,,,,,,,Listen to the question and speak out your answer!,1033.9116561412811,None,1033.8791943073272,1035.9111349582672,"Ich habe den Knopf gedrückt, um die Kaffeemaschine einzuschalten.",gedrückt,1035.2610209465026,None,1039.428007888794,None,1050.4621038913726,None,1051.8786571025848,None,./data/Subject_06/Session_01/Exp_data/2020_Jul_29_1217/rec_QA_run_03_block_000_trial_023.wav,06,01,Dutch,A2,True,False,True,False,False,True,True,True,True,True,True,True,No,3,No,No,No,No,2020_Jul_29_1217,nibs_stage_1,3.2.3,59.92616214609837,
3,0,3,0,0,0,0,0,24,0,24,0,,,,,,,,,,,,,,,,,,,,,,,,,Listen to the question and speak out your answer!,1054.9295580387115,None,1054.8969743728637,1056.9289059638977,"Er bekam eine neue Mutter, als sein Vater wieder heiratete.",heiratete,1056.278896856308,None,1060.5126488685607,None,1071.4796929836273,1072.4964599609375,1072.8963930606842,None,./data/Subject_06/Session_01/Exp_data/2020_Jul_29_1217/rec_QA_run_03_block_000_trial_024.wav,06,01,Dutch,A2,True,False,True,False,False,True,True,True,True,True,True,True,No,3,No,No,No,No,2020_Jul_29_1217,nibs_stage_1,3.2.3,59.92616214609837,
3,0,3,0,0,0,0,0,,,,,,,,,,,,,,,,,,1076.9466669559479,None,,,,,,,,,,,,,,,,,,,,,,,,,,06,01,Dutch,A2,True,False,True,False,False,True,True,True,True,True,True,True,No,3,No,No,No,No,2020_Jul_29_1217,nibs_stage_1,3.2.3,59.92616214609837,
3,0,3,0,1,0,1,0,0,0,0,0,,,,,,,,,,,,,,,,,,,,,,,,,Listen to the question and speak out your answer!,1101.9319369792938,None,1101.9002850532531,1103.9314060211182,Trotz meines Verbots hat er sein Auto vor meinem Haus geparkt.,geparkt,1103.2814918041229,1106.9983050823212,1107.4150767803192,None,1118.4822907924652,None,1119.8989100456238,None,./data/Subject_06/Session_01/Exp_data/2020_Jul_29_1217/rec_QA_run_03_block_001_trial_000.wav,06,01,Dutch,A2,True,False,True,False,False,True,True,True,True,True,True,True,No,3,No,No,No,No,2020_Jul_29_1217,nibs_stage_1,3.2.3,59.92616214609837,
3,0,3,0,1,0,1,0,1,0,1,0,,,,,,,,,,,,,,,,,,,,,,,,,Listen to the question and speak out your answer!,1122.9497210979462,None,1122.9171321868896,1124.9491770267487,"Mein Handy ist schon eingeschaltet, so dass Sie mich jederzeit anrufen können.",anrufen,1124.2991698265075,1128.8828220367432,1129.299448776245,None,1139.4999578475952,None,1140.916610956192,None,./data/Subject_06/Session_01/Exp_data/2020_Jul_29_1217/rec_QA_run_03_block_001_trial_001.wav,06,01,Dutch,A2,True,False,True,False,False,True,True,True,True,True,True,True,No,3,No,No,No,No,2020_Jul_29_1217,nibs_stage_1,3.2.3,59.92616214609837,
3,0,3,0,1,0,1,0,2,0,2,0,,,,,,,,,,,,,,,,,,,,,,,,,Listen to the question and speak out your answer!,1143.9669861793518,None,1143.935014295578,1145.9669620990753,Während einer Trocken-Zeit regnet es sehr selten.,regnet,1145.3169429779052,None,1148.6171219825744,1149.633866071701,1160.517756986618,None,1161.9344611167908,None,./data/Subject_06/Session_01/Exp_data/2020_Jul_29_1217/rec_QA_run_03_block_001_trial_002.wav,06,01,Dutch,A2,True,False,True,False,False,True,True,True,True,True,True,True,No,3,No,No,No,No,2020_Jul_29_1217,nibs_stage_1,3.2.3,59.92616214609837,
3,0,3,0,1,0,1,0,3,0,3,0,,,,,,,,,,,,,,,,,,,,,,,,,Listen to the question and speak out your answer!,1164.984627008438,None,1164.9529812812805,1166.9847350120544,Wir haben die Buchung per E-Mail bestätigt.,bestätigt,1166.3347468852996,None,1169.3015468597412,None,1181.5356147766113,None,1182.9523680210114,None,./data/Subject_06/Session_01/Exp_data/2020_Jul_29_1217/rec_QA_run_03_block_001_trial_003.wav,06,01,Dutch,A2,True,False,True,False,False,True,True,True,True,True,True,True,No,3,No,No,No,No,2020_Jul_29_1217,nibs_stage_1,3.2.3,59.92616214609837,
3,0,3,0,1,0,1,0,4,0,4,0,,,,,,,,,,,,,,,,,,,,,,,,,Listen to the question and speak out your answer!,1186.003046989441,None,1185.970841217041,1188.0025091171265,"Er probierte, die Tür mit dem falschen Schlüssel zu öffnen.",öffnen,1187.3858957767486,1190.8362679481506,1191.1860387802124,None,1202.5700209617614,1203.5867211818695,1203.987146139145,None,./data/Subject_06/Session_01/Exp_data/2020_Jul_29_1217/rec_QA_run_03_block_001_trial_004.wav,06,01,Dutch,A2,True,False,True,False,False,True,True,True,True,True,True,True,No,3,No,No,No,No,2020_Jul_29_1217,nibs_stage_1,3.2.3,59.92616214609837,
3,0,3,0,1,0,1,0,5,0,5,0,,,,,,,,,,,,,,,,,,,,,,,,,Listen to the question and speak out your answer!,1207.0375001430511,None,1207.005007314682,1209.0372550487518,Karneval wird jedes Jahr im Februar oder im März gefeiert.,gefeiert,1208.3869488716125,None,1212.6204159736633,None,1223.587719964981,None,1225.0043711662292,None,./data/Subject_06/Session_01/Exp_data/2020_Jul_29_1217/rec_QA_run_03_block_001_trial_005.wav,06,01,Dutch,A2,True,False,True,False,False,True,True,True,True,True,True,True,No,3,No,No,No,No,2020_Jul_29_1217,nibs_stage_1,3.2.3,59.92616214609837,
3,0,3,0,1,0,1,0,6,0,6,0,,,,,,,,,,,,,,,,,,,,,,,,,Listen to the question and speak out your answer!,1228.0551891326904,None,1228.0228293418884,1230.0547499656677,Ferdinand Magellan hat als Erster die Welt umsegelt.,umsegelt,1229.4047279834747,1232.7882270812988,1233.204935836792,None,1244.622220802307,None,1246.0389440059662,None,./data/Subject_06/Session_01/Exp_data/2020_Jul_29_1217/rec_QA_run_03_block_001_trial_006.wav,06,01,Dutch,A2,True,False,True,False,False,True,True,True,True,True,True,True,No,3,No,No,No,No,2020_Jul_29_1217,nibs_stage_1,3.2.3,59.92616214609837,
3,0,3,0,1,0,1,0,7,0,7,0,,,,,,,,,,,,,,,,,,,,,,,,,Listen to the question and speak out your answer!,1249.0891859531403,None,1249.0572691440582,1251.089194059372,Ein Gewitter besteht aus Blitz und Donner.,besteht,1250.4391818523407,1252.9226369857788,1253.3393228530883,1254.3561120033264,1265.6399958610534,None,1267.056648015976,None,./data/Subject_06/Session_01/Exp_data/2020_Jul_29_1217/rec_QA_run_03_block_001_trial_007.wav,06,01,Dutch,A2,True,False,True,False,False,True,True,True,True,True,True,True,No,3,No,No,No,No,2020_Jul_29_1217,nibs_stage_1,3.2.3,59.92616214609837,
3,0,3,0,1,0,1,0,8,0,8,0,,,,,,,,,,,,,,,,,,,,,,,,,Listen to the question and speak out your answer!,1270.1068770885468,None,1270.0750823497772,1272.1069691181183,Ich habe alle meine Freunde zu meiner Geburtstags Party eingeladen.,eingeladen,1271.4569678783416,1275.5737981796265,1275.9905097961425,None,1286.6577308654785,None,1288.0744500160217,None,./data/Subject_06/Session_01/Exp_data/2020_Jul_29_1217/rec_QA_run_03_block_001_trial_008.wav,06,01,Dutch,A2,True,False,True,False,False,True,True,True,True,True,True,True,No,3,No,No,No,No,2020_Jul_29_1217,nibs_stage_1,3.2.3,59.92616214609837,
3,0,3,0,1,0,1,0,9,0,9,0,,,,,,,,,,,,,,,,,,,,,,,,,Listen to the question and speak out your answer!,1291.125295162201,None,1291.0927923202514,1293.124752998352,"Wenn wir ein Auto mieten möchten, müssen wir Führerschein vorlegen und die Kaution bezahlen.",mieten,1292.474852848053,None,1298.4083838939666,1299.425096988678,1307.6755438327789,None,1309.092195034027,None,./data/Subject_06/Session_01/Exp_data/2020_Jul_29_1217/rec_QA_run_03_block_001_trial_009.wav,06,01,Dutch,A2,True,False,True,False,False,True,True,True,True,True,True,True,No,3,No,No,No,No,2020_Jul_29_1217,nibs_stage_1,3.2.3,59.92616214609837,
3,0,3,0,1,0,1,0,10,0,10,0,,,,,,,,,,,,,,,,,,,,,,,,,Listen to the question and speak out your answer!,1312.142539024353,None,1312.1106932640075,1314.1425330638885,Durch ein Fernrohr kann man manchmal sogar die Venus sehen.,sehen,1313.492528963089,1316.7760391235352,1317.1593847751617,1318.1760749816895,1328.6932948112487,1329.7102410793304,1330.1101820468903,None,./data/Subject_06/Session_01/Exp_data/2020_Jul_29_1217/rec_QA_run_03_block_001_trial_010.wav,06,01,Dutch,A2,True,False,True,False,False,True,True,True,True,True,True,True,No,3,No,No,No,No,2020_Jul_29_1217,nibs_stage_1,3.2.3,59.92616214609837,
3,0,3,0,1,0,1,0,11,0,11,0,,,,,,,,,,,,,,,,,,,,,,,,,Listen to the question and speak out your answer!,1333.144108057022,None,1333.1283913135528,1335.1769561767578,"Kollegen versammelt sich zusammen, um ein neues Projekt zu planen.",planen,1334.526957798004,1338.5773890018463,1338.96051197052,None,1349.7277758598327,None,1351.1444880962372,None,./data/Subject_06/Session_01/Exp_data/2020_Jul_29_1217/rec_QA_run_03_block_001_trial_011.wav,06,01,Dutch,A2,True,False,True,False,False,True,True,True,True,True,True,True,No,3,No,No,No,No,2020_Jul_29_1217,nibs_stage_1,3.2.3,59.92616214609837,
3,0,3,0,1,0,1,0,12,0,12,0,,,,,,,,,,,,,,,,,,,,,,,,,Listen to the question and speak out your answer!,1354.1952891349792,None,1354.1628113269805,1356.1947610378265,Blut fließt aus einer Wunde.,fließt,1355.5447259426116,1357.3948621749878,1357.7782519340515,1358.7950100898743,1370.7454538822174,1371.7622711658478,1372.1623141765594,None,./data/Subject_06/Session_01/Exp_data/2020_Jul_29_1217/rec_QA_run_03_block_001_trial_012.wav,06,01,Dutch,A2,True,False,True,False,False,True,True,True,True,True,True,True,No,3,No,No,No,No,2020_Jul_29_1217,nibs_stage_1,3.2.3,59.92616214609837,
3,0,3,0,1,0,1,0,13,0,13,0,,,,,,,,,,,,,,,,,,,,,,,,,Listen to the question and speak out your answer!,1375.2130420207977,None,1375.180675315857,1377.2125310897827,"Solange es regnet, bleiben wir hier.",bleiben,1376.5625827789306,1378.8460760116577,1379.262662935257,None,1391.7633219242095,None,1393.1800520420074,None,./data/Subject_06/Session_01/Exp_data/2020_Jul_29_1217/rec_QA_run_03_block_001_trial_013.wav,06,01,Dutch,A2,True,False,True,False,False,True,True,True,True,True,True,True,No,3,No,No,No,No,2020_Jul_29_1217,nibs_stage_1,3.2.3,59.92616214609837,
3,0,3,0,1,0,1,0,14,0,14,0,,,,,,,,,,,,,,,,,,,,,,,,,Listen to the question and speak out your answer!,1396.246868133545,None,1396.2150469779967,1398.246973991394,Die Studenten müssen sich für den Kurs anmelden.,anmelden,1397.6302829265594,None,1400.79711894989,None,1412.8310978889465,None,1414.24782705307,None,./data/Subject_06/Session_01/Exp_data/2020_Jul_29_1217/rec_QA_run_03_block_001_trial_014.wav,06,01,Dutch,A2,True,False,True,False,False,True,True,True,True,True,True,True,No,3,No,No,No,No,2020_Jul_29_1217,nibs_stage_1,3.2.3,59.92616214609837,
3,0,3,0,1,0,1,0,15,0,15,0,,,,,,,,,,,,,,,,,,,,,,,,,Listen to the question and speak out your answer!,1417.2828710079193,None,1417.266171836853,1419.3147490024567,"Er muss arbeiten, um seine beiden Kinder großzuziehen.",arbeiten,1418.664709854126,1421.9481999874115,1422.2982349872589,1423.31489610672,1433.8655188560485,None,1435.2822551727295,None,./data/Subject_06/Session_01/Exp_data/2020_Jul_29_1217/rec_QA_run_03_block_001_trial_015.wav,06,01,Dutch,A2,True,False,True,False,False,True,True,True,True,True,True,True,No,3,No,No,No,No,2020_Jul_29_1217,nibs_stage_1,3.2.3,59.92616214609837,
3,0,3,0,1,0,1,0,16,0,16,0,,,,,,,,,,,,,,,,,,,,,,,,,Listen to the question and speak out your answer!,1438.3164019584656,None,1438.2839110851287,1440.3158841133118,Sie hat neue Laufschuhe bekommen.,bekommen,1439.6662719726562,None,1442.1326649665832,None,1454.866683769226,1455.8835000991821,1456.2833020687103,None,./data/Subject_06/Session_01/Exp_data/2020_Jul_29_1217/rec_QA_run_03_block_001_trial_016.wav,06,01,Dutch,A2,True,False,True,False,False,True,True,True,True,True,True,True,No,3,No,No,No,No,2020_Jul_29_1217,nibs_stage_1,3.2.3,59.92616214609837,
3,0,3,0,1,0,1,0,17,0,17,0,,,,,,,,,,,,,,,,,,,,,,,,,Listen to the question and speak out your answer!,1459.334419965744,None,1459.3184109687804,1461.3668961524963,"Bitte, erinnern Sie mich daran, wenn ich es vergessen sollte.",erinnern,1460.7169678688049,1464.1003839969635,1464.483825969696,None,1475.9177968978881,None,1477.334498167038,None,./data/Subject_06/Session_01/Exp_data/2020_Jul_29_1217/rec_QA_run_03_block_001_trial_017.wav,06,01,Dutch,A2,True,False,True,False,False,True,True,True,True,True,True,True,No,3,No,No,No,No,2020_Jul_29_1217,nibs_stage_1,3.2.3,59.92616214609837,
3,0,3,0,1,0,1,0,18,0,18,0,,,,,,,,,,,,,,,,,,,,,,,,,Listen to the question and speak out your answer!,1480.3689210414886,None,1480.3528458118437,1482.4014341831207,Ich höre sie den Namen Sam rufen.,rufen,1481.7514129161834,None,1484.4183397769928,None,1496.952203798294,1497.9689490795135,1498.36900806427,None,./data/Subject_06/Session_01/Exp_data/2020_Jul_29_1217/rec_QA_run_03_block_001_trial_018.wav,06,01,Dutch,A2,True,False,True,False,False,True,True,True,True,True,True,True,No,3,No,No,No,No,2020_Jul_29_1217,nibs_stage_1,3.2.3,59.92616214609837,
3,0,3,0,1,0,1,0,19,0,19,0,,,,,,,,,,,,,,,,,,,,,,,,,Listen to the question and speak out your answer!,1501.4030640125275,None,1501.37060008049,1503.402568101883,Er hängte seine Jacke über die Lehne des Stuhls.,hängte,1502.7859659671783,1505.7360000610352,1506.1193459510803,None,1517.9866898536682,None,1519.4034049510956,None,./data/Subject_06/Session_01/Exp_data/2020_Jul_29_1217/rec_QA_run_03_block_001_trial_019.wav,06,01,Dutch,A2,True,False,True,False,False,True,True,True,True,True,True,True,No,3,No,No,No,No,2020_Jul_29_1217,nibs_stage_1,3.2.3,59.92616214609837,
3,0,3,0,1,0,1,0,20,0,20,0,,,,,,,,,,,,,,,,,,,,,,,,,Listen to the question and speak out your answer!,1522.436977148056,None,1522.405072069168,1524.4372789859772,Die Mieter wollen die Vertragsbedingungen ändern.,ändern,1523.8202898979187,None,1526.9204748153686,None,1539.0210869789123,1540.0377910137177,1540.4378130435944,None,./data/Subject_06/Session_01/Exp_data/2020_Jul_29_1217/rec_QA_run_03_block_001_trial_020.wav,06,01,Dutch,A2,True,False,True,False,False,True,True,True,True,True,True,True,No,3,No,No,No,No,2020_Jul_29_1217,nibs_stage_1,3.2.3,59.92616214609837,
3,0,3,0,1,0,1,0,21,0,21,0,,,,,,,,,,,,,,,,,,,,,,,,,Listen to the question and speak out your answer!,1543.471960067749,None,1543.439506149292,1545.471529006958,Die Bergarbeiter fuhren jeden Tag in die Grube.,fuhren,1544.8548329353332,1548.0382680892944,1548.4217708587646,None,1560.0554697990417,None,1561.4722909927368,None,./data/Subject_06/Session_01/Exp_data/2020_Jul_29_1217/rec_QA_run_03_block_001_trial_021.wav,06,01,Dutch,A2,True,False,True,False,False,True,True,True,True,True,True,True,No,3,No,No,No,No,2020_Jul_29_1217,nibs_stage_1,3.2.3,59.92616214609837,
3,0,3,0,1,0,1,0,22,0,22,0,,,,,,,,,,,,,,,,,,,,,,,,,Listen to the question and speak out your answer!,1564.5063831806183,None,1564.4739759922027,1566.5057921409607,Als ein vertrauenswürdiger Mann hält Sam immer sein Versprechen.,hält,1565.8891869068145,1569.672707080841,1570.0226629257202,None,1581.0899918556213,None,1582.506916999817,None,./data/Subject_06/Session_01/Exp_data/2020_Jul_29_1217/rec_QA_run_03_block_001_trial_022.wav,06,01,Dutch,A2,True,False,True,False,False,True,True,True,True,True,True,True,No,3,No,No,No,No,2020_Jul_29_1217,nibs_stage_1,3.2.3,59.92616214609837,
3,0,3,0,1,0,1,0,23,0,23,0,,,,,,,,,,,,,,,,,,,,,,,,,Listen to the question and speak out your answer!,1585.5402581691742,None,1585.5084980487823,1587.5403170585632,Die Tulpen stammen eigentlich aus Persien und der Türkei.,stammen,1586.9236329078674,1590.4404900074005,1590.8238997936248,None,1602.1244397640228,None,1603.5411050319672,None,./data/Subject_06/Session_01/Exp_data/2020_Jul_29_1217/rec_QA_run_03_block_001_trial_023.wav,06,01,Dutch,A2,True,False,True,False,False,True,True,True,True,True,True,True,No,3,No,No,No,No,2020_Jul_29_1217,nibs_stage_1,3.2.3,59.92616214609837,
3,0,3,0,1,0,1,0,24,0,24,0,,,,,,,,,,,,,,,,,,,,,,,,,Listen to the question and speak out your answer!,1606.6598529815674,None,1606.64303483963,1608.691430091858,Das Eingreifen des Lehrers beendete den Kampf  der Schüler.,beendete,1608.0414219379425,None,1612.0416098117828,None,1623.2255487918853,1624.2423210144043,1624.642438173294,None,./data/Subject_06/Session_01/Exp_data/2020_Jul_29_1217/rec_QA_run_03_block_001_trial_024.wav,06,01,Dutch,A2,True,False,True,False,False,True,True,True,True,True,True,True,No,3,No,No,No,No,2020_Jul_29_1217,nibs_stage_1,3.2.3,59.92616214609837,
