run.thisRepN,run.thisTrialN,run.thisN,run.thisIndex,QA_block.thisRepN,QA_block.thisTrialN,QA_block.thisN,QA_block.thisIndex,QA_trial.thisRepN,QA_trial.thisTrialN,QA_trial.thisN,QA_trial.thisIndex,fade_in_text.text,fade_in_text.started,fade_in_text.stopped,RS_intro_title.started,RS_intro_title.stopped,RS_intro_text.text,RS_intro_text.started,RS_intro_text.stopped,RS_intro_audio.started,RS_intro_audio.stopped,RS_rec_text.text,RS_rec_text.started,RS_rec_text.stopped,Pause_cont.started,Pause_cont.stopped,QA_intro_title.started,QA_intro_title.stopped,QA_intro_text.text,QA_intro_text.started,QA_intro_text.stopped,QA_intro_audio.started,QA_intro_audio.stopped,QA_intro_cont.started,QA_intro_cont.stopped,QA_rec_text.text,QA_rec_text.started,QA_rec_text.stopped,QA_rec_beep_hint.started,QA_rec_beep_hint.stopped,QA_rec_question.sen_text,QA_rec_question.cen_text,QA_rec_question.started,QA_rec_question.stopped,QA_rec_beep_start.started,QA_rec_beep_start.stopped,QA_rec_beep_end.started,QA_rec_beep_end.stopped,QA_rec_break.started,QA_rec_break.stopped,filename,participant,session,First language,German level,Full_screen,Instruction,Intro,Artifact,Cali_pre,Fade_in_out,Artifact_within,Resting_State,QA,Pause,Cali_post,End,Breakpoint_Cali_pre_trial,Breakpoint_Run,Breakpoint_RS_block,Breakpoint_QA_block,Breakpoint_QA_trial,Breakpoint_Cali_post_trial,date,expName,psychopyVersion,frameRate,
0,0,0,0,0,0,0,0,0,0,0,0,Please remain seated until further instruction via the earphone.,52.724873065948486,None,262.1854479312897,None," - Task: Keep seated and relaxed with either      
             opening or closing eyes                  
 - Beep sound with decreasing pitch: Block finish 
",262.1854479312897,None,262.16862187385556,None,"Please keep relaxed and close your eyes.
",285.2195129394531,465.2285988330841,468.5622069835663,None,497.78094387054443,None," - Task: Listen to the question& Speak out answer 
 - Melodious beep sound: Trial start              
 - Silent sound (blank): censored word            
 - Beep sound with increasing pitch: Rec. start   
 - Beep sound with decreasing pitch: Rec. finish  
",497.78094387054443,None,497.7637788772583,None,537.1656060218811,None,Listen to the question and speak out your answer!,540.2326059341431,None,540.2158125400543,542.2160890102386,Bei der Bewerbung müssen Sie Ihre Motivation begründen.,begründen,541.5993978500367,544.8329908847809,545.2499217510224,None,556.8001677513123,None,558.2001540660858,559.2002899646759,./data/Subject_06/Session_01/Exp_data/2020_Jul_29_0943/rec_QA_run_00_block_000_trial_000.wav,06,01,Dutch,A2,True,False,True,False,False,True,True,True,True,True,True,True,No,No,No,No,No,No,2020_Jul_29_0943,nibs_stage_1,3.2.3,59.989072882728,
0,0,0,0,0,0,0,0,1,0,1,0,,,,,,,,,,,,,,,,,,,,,,,,,Listen to the question and speak out your answer!,561.2837429046631,None,561.2671266555786,563.2671608924866,Auf Lavaerde wachsen sehr gute Weintrauben.,wachsen,562.6504816532135,None,566.1839537143708,None,577.8518437862397,None,579.2515380382538,580.2513518333435,./data/Subject_06/Session_01/Exp_data/2020_Jul_29_0943/rec_QA_run_00_block_000_trial_001.wav,06,01,Dutch,A2,True,False,True,False,False,True,True,True,True,True,True,True,No,No,No,No,No,No,2020_Jul_29_0943,nibs_stage_1,3.2.3,59.989072882728,
0,0,0,0,0,0,0,0,2,0,2,0,,,,,,,,,,,,,,,,,,,,,,,,,Listen to the question and speak out your answer!,582.3360888957977,None,582.3182197570801,584.318235874176,"Wir planen eine Route durch das ganze Land, von Westen bis Osten.",planen,583.7019927024842,587.8516578674316,588.2519628524781,None,598.9022356987,None,600.3023898601532,601.3026440143585,./data/Subject_06/Session_01/Exp_data/2020_Jul_29_0943/rec_QA_run_00_block_000_trial_002.wav,06,01,Dutch,A2,True,False,True,False,False,True,True,True,True,True,True,True,No,No,No,No,No,No,2020_Jul_29_0943,nibs_stage_1,3.2.3,59.989072882728,
0,0,0,0,0,0,0,0,3,0,3,0,,,,,,,,,,,,,,,,,,,,,,,,,Listen to the question and speak out your answer!,603.3858280181885,None,603.3697117328644,605.3693239688873,Sie haben Beeren gesammelt und wilde Tiere gejagt.,gejagt,604.7525507926941,608.0027899742126,608.4194766998291,None,619.9534008026124,620.9534568786621,621.353483915329,622.3535308837891,./data/Subject_06/Session_01/Exp_data/2020_Jul_29_0943/rec_QA_run_00_block_000_trial_003.wav,06,01,Dutch,A2,True,False,True,False,False,True,True,True,True,True,True,True,No,No,No,No,No,No,2020_Jul_29_0943,nibs_stage_1,3.2.3,59.989072882728,
0,0,0,0,0,0,0,0,4,0,4,0,,,,,,,,,,,,,,,,,,,,,,,,,Listen to the question and speak out your answer!,624.4370138645172,None,624.4203587532044,626.4203670024872,Die Absolventen feiern ihren erfolgreichen Abschluss an der Universität.,feiern,625.8037268638611,None,630.7206427574158,631.7207129001617,641.0044848442078,None,642.4042570590973,643.404305934906,./data/Subject_06/Session_01/Exp_data/2020_Jul_29_0943/rec_QA_run_00_block_000_trial_004.wav,06,01,Dutch,A2,True,False,True,False,False,True,True,True,True,True,True,True,No,No,No,No,No,No,2020_Jul_29_0943,nibs_stage_1,3.2.3,59.989072882728,
0,0,0,0,0,0,0,0,5,0,5,0,,,,,,,,,,,,,,,,,,,,,,,,,Listen to the question and speak out your answer!,645.4712688922882,None,645.4546209812165,647.454586982727,"Ich glaube nicht, dass es regnen wird, aber ich werde für alle Fälle einen Schirm mitnehmen.",glaube,646.8544816493988,651.9714019298553,652.3714067459107,None,662.0553497791291,663.0553719997406,663.4553349018097,664.4554779529572,./data/Subject_06/Session_01/Exp_data/2020_Jul_29_0943/rec_QA_run_00_block_000_trial_005.wav,06,01,Dutch,A2,True,False,True,False,False,True,True,True,True,True,True,True,No,No,No,No,No,No,2020_Jul_29_0943,nibs_stage_1,3.2.3,59.989072882728,
0,0,0,0,0,0,0,0,6,0,6,0,,,,,,,,,,,,,,,,,,,,,,,,,Listen to the question and speak out your answer!,666.5226769447327,None,666.5056167602539,668.5058929920197,Plastik Müll belastet die Umwelt.,belastet,667.8892068386078,None,670.6560358524323,671.656054019928,683.0900086879731,None,684.4900479316711,685.4902100563049,./data/Subject_06/Session_01/Exp_data/2020_Jul_29_0943/rec_QA_run_00_block_000_trial_006.wav,06,01,Dutch,A2,True,False,True,False,False,True,True,True,True,True,True,True,No,No,No,No,No,No,2020_Jul_29_0943,nibs_stage_1,3.2.3,59.989072882728,
0,0,0,0,0,0,0,0,7,0,7,0,,,,,,,,,,,,,,,,,,,,,,,,,Listen to the question and speak out your answer!,687.5572838783264,None,687.5402480602265,689.5401029586792,"Sie müssen mehr bezahlen, es fehlen noch ein paar Cent.",fehlen,688.9233958244324,692.2568938732147,692.6735777378083,693.6735410690308,704.1244017601014,None,705.5243608951569,706.5246689319611,./data/Subject_06/Session_01/Exp_data/2020_Jul_29_0943/rec_QA_run_00_block_000_trial_007.wav,06,01,Dutch,A2,True,False,True,False,False,True,True,True,True,True,True,True,No,No,No,No,No,No,2020_Jul_29_0943,nibs_stage_1,3.2.3,59.989072882728,
0,0,0,0,0,0,0,0,8,0,8,0,,,,,,,,,,,,,,,,,,,,,,,,,Listen to the question and speak out your answer!,708.6078569889069,None,708.5911868572235,710.5910758972168,Ich musste für meinen Vortrag eine Menge Informationen sammeln.,sammeln,709.9744617462159,713.7751159667969,714.1746797084809,715.1746518611908,725.1754877090455,726.1754529476166,726.5752730369568,727.5754120349884,./data/Subject_06/Session_01/Exp_data/2020_Jul_29_0943/rec_QA_run_00_block_000_trial_008.wav,06,01,Dutch,A2,True,False,True,False,False,True,True,True,True,True,True,True,No,No,No,No,No,No,2020_Jul_29_0943,nibs_stage_1,3.2.3,59.989072882728,
0,0,0,0,0,0,0,0,9,0,9,0,,,,,,,,,,,,,,,,,,,,,,,,,Listen to the question and speak out your answer!,729.6593170166016,None,729.642222738266,731.6427209377289,Wir werden jedes Paket innerhalb von fünf Arbeitstagen liefern.,liefern,731.0424818515778,None,735.3425037384034,736.3425400257111,746.2430407524109,None,747.6433169841766,748.6431250572205,./data/Subject_06/Session_01/Exp_data/2020_Jul_29_0943/rec_QA_run_00_block_000_trial_009.wav,06,01,Dutch,A2,True,False,True,False,False,True,True,True,True,True,True,True,No,No,No,No,No,No,2020_Jul_29_0943,nibs_stage_1,3.2.3,59.989072882728,
0,0,0,0,0,0,0,0,10,0,10,0,,,,,,,,,,,,,,,,,,,,,,,,,Listen to the question and speak out your answer!,750.6937310695648,None,750.676596069336,752.6766760349274,"Es hat die ganze Woche geregnet, aber heute scheint endlich die Sonne. ",scheint,752.0766286373139,756.2102708816528,756.6102296829224,None,767.2774767398835,None,768.6944448947906,None,./data/Subject_06/Session_01/Exp_data/2020_Jul_29_0943/rec_QA_run_00_block_000_trial_010.wav,06,01,Dutch,A2,True,False,True,False,False,True,True,True,True,True,True,True,No,No,No,No,No,No,2020_Jul_29_0943,nibs_stage_1,3.2.3,59.989072882728,
0,0,0,0,0,0,0,0,11,0,11,0,,,,,,,,,,,,,,,,,,,,,,,,,Listen to the question and speak out your answer!,771.828243970871,None,771.8109546661377,773.8111619949341,"Die Produkte, die ich bestellt hatte, kamen drei Tage später an.",kamen,773.2111677646637,None,777.7279576778412,778.7280249595642,788.4119047641755,789.4119420051575,789.8119339942932,790.8287270069122,./data/Subject_06/Session_01/Exp_data/2020_Jul_29_0943/rec_QA_run_00_block_000_trial_011.wav,06,01,Dutch,A2,True,False,True,False,False,True,True,True,True,True,True,True,No,No,No,No,No,No,2020_Jul_29_0943,nibs_stage_1,3.2.3,59.989072882728,
0,0,0,0,0,0,0,0,12,0,12,0,,,,,,,,,,,,,,,,,,,,,,,,,Listen to the question and speak out your answer!,792.8799328804016,None,792.8621980190278,794.8788380622864,"Das Flugzeug steht kurz vor dem Abflug, wir müssen uns beeilen.",beeilen,794.2621457099915,None,798.5623638153077,799.5790889263153,809.4630786895752,None,810.8796608448029,None,./data/Subject_06/Session_01/Exp_data/2020_Jul_29_0943/rec_QA_run_00_block_000_trial_012.wav,06,01,Dutch,A2,True,False,True,False,False,True,True,True,True,True,True,True,No,No,No,No,No,No,2020_Jul_29_0943,nibs_stage_1,3.2.3,59.989072882728,
0,0,0,0,0,0,0,0,13,0,13,0,,,,,,,,,,,,,,,,,,,,,,,,,Listen to the question and speak out your answer!,813.9470419883728,None,813.9299398422241,815.9466209411621,Ich habe gestern Abend mit meiner Mutter geredet.,geredet,815.3298098564148,None,818.5634116649628,None,830.5307077884675,None,831.9474329948425,None,./data/Subject_06/Session_01/Exp_data/2020_Jul_29_0943/rec_QA_run_00_block_000_trial_013.wav,06,01,Dutch,A2,True,False,True,False,False,True,True,True,True,True,True,True,No,No,No,No,No,No,2020_Jul_29_0943,nibs_stage_1,3.2.3,59.989072882728,
0,0,0,0,0,0,0,0,14,0,14,0,,,,,,,,,,,,,,,,,,,,,,,,,Listen to the question and speak out your answer!,835.0152099132538,None,834.997629737854,837.0143518447876,Wir sollen unsere Hände täglich aus Hygiene waschen.,waschen,836.3976487636567,None,840.0978567123414,None,851.5984608650208,None,853.0151739120483,None,./data/Subject_06/Session_01/Exp_data/2020_Jul_29_0943/rec_QA_run_00_block_000_trial_014.wav,06,01,Dutch,A2,True,False,True,False,False,True,True,True,True,True,True,True,No,No,No,No,No,No,2020_Jul_29_0943,nibs_stage_1,3.2.3,59.989072882728,
0,0,0,0,0,0,0,0,15,0,15,0,,,,,,,,,,,,,,,,,,,,,,,,,Listen to the question and speak out your answer!,856.0660519599915,None,856.0487300395966,858.0654418468475,Können Sie mir einen guten Augenarzt empfehlen?,empfehlen,857.4487516403199,860.2658178806305,860.6489078521729,None,872.6495127201081,None,874.0662620067596,None,./data/Subject_06/Session_01/Exp_data/2020_Jul_29_0943/rec_QA_run_00_block_000_trial_015.wav,06,01,Dutch,A2,True,False,True,False,False,True,True,True,True,True,True,True,No,No,No,No,No,No,2020_Jul_29_0943,nibs_stage_1,3.2.3,59.989072882728,
0,0,0,0,0,0,0,0,16,0,16,0,,,,,,,,,,,,,,,,,,,,,,,,,Listen to the question and speak out your answer!,877.1331548690796,None,877.099718952179,879.1332030296326,Paul hat zum Abendessen Kartoffelsuppe gegessen.,gegessen,878.5165197372437,881.5333209037781,881.9166738510132,None,893.7172727108002,None,895.1341369152069,None,./data/Subject_06/Session_01/Exp_data/2020_Jul_29_0943/rec_QA_run_00_block_000_trial_016.wav,06,01,Dutch,A2,True,False,True,False,False,True,True,True,True,True,True,True,No,No,No,No,No,No,2020_Jul_29_0943,nibs_stage_1,3.2.3,59.989072882728,
0,0,0,0,0,0,0,0,17,0,17,0,,,,,,,,,,,,,,,,,,,,,,,,,Listen to the question and speak out your answer!,898.1682269573212,None,898.1508856773377,900.1676118373871,Können Sie die Kleidung des Täters beschreiben?,beschreiben,899.5509137630463,None,902.417732667923,903.434464931488,914.751701784134,None,916.1683700084686,None,./data/Subject_06/Session_01/Exp_data/2020_Jul_29_0943/rec_QA_run_00_block_000_trial_017.wav,06,01,Dutch,A2,True,False,True,False,False,True,True,True,True,True,True,True,No,No,No,No,No,No,2020_Jul_29_0943,nibs_stage_1,3.2.3,59.989072882728,
0,0,0,0,0,0,0,0,18,0,18,0,,,,,,,,,,,,,,,,,,,,,,,,,Listen to the question and speak out your answer!,919.2352669239044,None,919.2020100593568,921.2353780269623,"Ich muss mich bemühen, das Ziel des Projektes zu erreichen.",erreichen,920.6187016487122,924.2358078956604,924.618884754181,None,935.8195056438446,None,937.2362179756165,None,./data/Subject_06/Session_01/Exp_data/2020_Jul_29_0943/rec_QA_run_00_block_000_trial_018.wav,06,01,Dutch,A2,True,False,True,False,False,True,True,True,True,True,True,True,No,No,No,No,No,No,2020_Jul_29_0943,nibs_stage_1,3.2.3,59.989072882728,
0,0,0,0,0,0,0,0,19,0,19,0,,,,,,,,,,,,,,,,,,,,,,,,,Listen to the question and speak out your answer!,940.2700638771057,None,940.2530766487122,942.2697999477386,Martin geht in ein Reisebüro und lässt sich von einem Angestellten beraten.,beraten,941.6531166553498,None,946.6201188087464,947.6367478370667,956.8538796424866,957.8705959320068,958.2706170082092,None,./data/Subject_06/Session_01/Exp_data/2020_Jul_29_0943/rec_QA_run_00_block_000_trial_019.wav,06,01,Dutch,A2,True,False,True,False,False,True,True,True,True,True,True,True,No,No,No,No,No,No,2020_Jul_29_0943,nibs_stage_1,3.2.3,59.989072882728,
0,0,0,0,0,0,0,0,20,0,20,0,,,,,,,,,,,,,,,,,,,,,,,,,Listen to the question and speak out your answer!,961.3394348621368,None,961.320844745636,963.3375608921051,Die Taxifahrer sollten während Mitternacht nicht hupen.,hupen,962.7208628177643,None,966.2544137954712,967.2710959911346,977.9049617767334,None,979.3216960430145,None,./data/Subject_06/Session_01/Exp_data/2020_Jul_29_0943/rec_QA_run_00_block_000_trial_020.wav,06,01,Dutch,A2,True,False,True,False,False,True,True,True,True,True,True,True,No,No,No,No,No,No,2020_Jul_29_0943,nibs_stage_1,3.2.3,59.989072882728,
0,0,0,0,0,0,0,0,21,0,21,0,,,,,,,,,,,,,,,,,,,,,,,,,Listen to the question and speak out your answer!,982.3888700008392,None,982.3719197273255,984.3886468410492,"Keine Sorge, ich werde mich um Ihr Kind kümmern.",kümmern,983.7719478130341,986.6223669052124,987.0055226802826,None,998.9728488445282,None,1000.3894829750061,None,./data/Subject_06/Session_01/Exp_data/2020_Jul_29_0943/rec_QA_run_00_block_000_trial_021.wav,06,01,Dutch,A2,True,False,True,False,False,True,True,True,True,True,True,True,No,No,No,No,No,No,2020_Jul_29_0943,nibs_stage_1,3.2.3,59.989072882728,
0,0,0,0,0,0,0,0,22,0,22,0,,,,,,,,,,,,,,,,,,,,,,,,,Listen to the question and speak out your answer!,1003.4566209316254,None,1003.4396577835083,1005.4563989639282,Howard Carter hat viele Schätze im Grab von Tutanchamun gefunden.,gefunden,1004.8397027969361,None,1009.239925813675,None,1020.0405187129975,None,1021.4574680328369,None,./data/Subject_06/Session_01/Exp_data/2020_Jul_29_0943/rec_QA_run_00_block_000_trial_022.wav,06,01,Dutch,A2,True,False,True,False,False,True,True,True,True,True,True,True,No,No,No,No,No,No,2020_Jul_29_0943,nibs_stage_1,3.2.3,59.989072882728,
0,0,0,0,0,0,0,0,23,0,23,0,,,,,,,,,,,,,,,,,,,,,,,,,Listen to the question and speak out your answer!,1024.524689912796,None,1024.4907678604127,1026.524169921875,"Wir schafften es, das Projekt nach Plan abzuschließen.",schafften,1025.907469701767,1029.3576619625092,1029.740998697281,1030.7577259540558,1041.1082658290863,None,1042.5249960422516,None,./data/Subject_06/Session_01/Exp_data/2020_Jul_29_0943/rec_QA_run_00_block_000_trial_023.wav,06,01,Dutch,A2,True,False,True,False,False,True,True,True,True,True,True,True,No,No,No,No,No,No,2020_Jul_29_0943,nibs_stage_1,3.2.3,59.989072882728,
0,0,0,0,0,0,0,0,24,0,24,0,,,,,,,,,,,,,,,,,,,,,,,,,Listen to the question and speak out your answer!,1045.5595178604126,None,1045.541853761673,1047.5586738586426,Bitte waschen Sie Ihre Hände mit Seife.,waschen,1046.9418928146363,1049.4587099552155,1049.8087927818299,None,1062.1427287578583,1063.1594018936157,1063.5594079494476,None,./data/Subject_06/Session_01/Exp_data/2020_Jul_29_0943/rec_QA_run_00_block_000_trial_024.wav,06,01,Dutch,A2,True,False,True,False,False,True,True,True,True,True,True,True,No,No,No,No,No,No,2020_Jul_29_0943,nibs_stage_1,3.2.3,59.989072882728,
0,0,0,0,0,0,0,0,,,,,,,,,,,,,,,,,,1067.6102650165558,None,,,,,,,,,,,,,,,,,,,,,,,,,,06,01,Dutch,A2,True,False,True,False,False,True,True,True,True,True,True,True,No,No,No,No,No,No,2020_Jul_29_0943,nibs_stage_1,3.2.3,59.989072882728,
0,0,0,0,1,0,1,0,0,0,0,0,,,,,,,,,,,,,,,,,,,,,,,,,Listen to the question and speak out your answer!,1081.7271480560303,None,1081.6938372135162,1083.7271509170532,"Leichte Sprache ist eine Hilfe für Menschen , die keine schwierige Sprache verstehen.",verstehen,1083.0771028518677,None,1088.5107216358185,1089.5275988578796,1098.2779068470002,None,1099.6946380138397,None,./data/Subject_06/Session_01/Exp_data/2020_Jul_29_0943/rec_QA_run_00_block_001_trial_000.wav,06,01,Dutch,A2,True,False,True,False,False,True,True,True,True,True,True,True,No,No,No,No,No,No,2020_Jul_29_0943,nibs_stage_1,3.2.3,59.989072882728,
0,0,0,0,1,0,1,0,1,0,1,0,,,,,,,,,,,,,,,,,,,,,,,,,Listen to the question and speak out your answer!,1102.7621018886566,None,1102.7281600475312,1104.7615609169006,"Um eine Kreditkarte zu bewerben, muss man älter als 18 werden. ",bewerben,1104.1115238189698,None,1108.5784277439118,None,1119.3123838424683,1120.3290438652039,1120.7290740013123,None,./data/Subject_06/Session_01/Exp_data/2020_Jul_29_0943/rec_QA_run_00_block_001_trial_001.wav,06,01,Dutch,A2,True,False,True,False,False,True,True,True,True,True,True,True,No,No,No,No,No,No,2020_Jul_29_0943,nibs_stage_1,3.2.3,59.989072882728,
0,0,0,0,1,0,1,0,2,0,2,0,,,,,,,,,,,,,,,,,,,,,,,,,Listen to the question and speak out your answer!,1123.796756029129,None,1123.77923784256,1125.7960028648376,Ich beendete meine Arbeit und erhielt eine neue Aufgabe.,beendete,1125.1792926311493,None,1129.2795257091523,1130.296229839325,1140.380366754532,None,1141.7968170642853,None,./data/Subject_06/Session_01/Exp_data/2020_Jul_29_0943/rec_QA_run_00_block_001_trial_002.wav,06,01,Dutch,A2,True,False,True,False,False,True,True,True,True,True,True,True,No,No,No,No,No,No,2020_Jul_29_0943,nibs_stage_1,3.2.3,59.989072882728,
0,0,0,0,1,0,1,0,3,0,3,0,,,,,,,,,,,,,,,,,,,,,,,,,Listen to the question and speak out your answer!,1144.8640220165253,None,1144.830384874344,1146.8637380599976,"Hiermit wird bestätigt, dass Frau Müller das Praktikum bei uns absolviert hat.",bestätigt,1146.24705286026,None,1151.2139846801758,1152.2307088375092,1161.448109817505,None,1162.8645758628845,None,./data/Subject_06/Session_01/Exp_data/2020_Jul_29_0943/rec_QA_run_00_block_001_trial_003.wav,06,01,Dutch,A2,True,False,True,False,False,True,True,True,True,True,True,True,No,No,No,No,No,No,2020_Jul_29_0943,nibs_stage_1,3.2.3,59.989072882728,
0,0,0,0,1,0,1,0,4,0,4,0,,,,,,,,,,,,,,,,,,,,,,,,,Listen to the question and speak out your answer!,1165.8987278938293,None,1165.8647738933564,1167.898365020752,"Danke für den Smoothie, den Sie mir machten.",machten,1167.2481266975403,None,1170.2484437942505,1171.2650299072266,1182.4657477855683,1183.482311964035,1183.8823690414429,None,./data/Subject_06/Session_01/Exp_data/2020_Jul_29_0943/rec_QA_run_00_block_001_trial_004.wav,06,01,Dutch,A2,True,False,True,False,False,True,True,True,True,True,True,True,No,No,No,No,No,No,2020_Jul_29_0943,nibs_stage_1,3.2.3,59.989072882728,
0,0,0,0,1,0,1,0,5,0,5,0,,,,,,,,,,,,,,,,,,,,,,,,,Listen to the question and speak out your answer!,1186.9500648975372,None,1186.9158870220185,1188.9495708942413,Sonja nimmt ihren Tee mit Milch und Zucker.,nimmt,1188.3325888633728,1191.0827128887177,1191.4327527999878,1192.4494760036469,1203.5333778381348,None,1204.9501378536224,None,./data/Subject_06/Session_01/Exp_data/2020_Jul_29_0943/rec_QA_run_00_block_001_trial_005.wav,06,01,Dutch,A2,True,False,True,False,False,True,True,True,True,True,True,True,No,No,No,No,No,No,2020_Jul_29_0943,nibs_stage_1,3.2.3,59.989072882728,
0,0,0,0,1,0,1,0,6,0,6,0,,,,,,,,,,,,,,,,,,,,,,,,,Listen to the question and speak out your answer!,1207.9842400550842,None,1207.950302028656,1209.9839470386505,Das Experiment hat eine Woche lang gedauert.,gedauert,1209.3335906982422,None,1212.500494670868,None,1224.534460735321,1225.551321029663,1225.9511630535126,None,./data/Subject_06/Session_01/Exp_data/2020_Jul_29_0943/rec_QA_run_00_block_001_trial_006.wav,06,01,Dutch,A2,True,False,True,False,False,True,True,True,True,True,True,True,No,No,No,No,No,No,2020_Jul_29_0943,nibs_stage_1,3.2.3,59.989072882728,
0,0,0,0,1,0,1,0,7,0,7,0,,,,,,,,,,,,,,,,,,,,,,,,,Listen to the question and speak out your answer!,1229.0180339813232,None,1228.984729909897,1231.0181379318237,Ihre Kinder liegen noch im Bett.,liegen,1230.3681196689606,None,1232.7348896980286,1233.7515988349915,1245.5690948486329,None,1246.9856510162354,None,./data/Subject_06/Session_01/Exp_data/2020_Jul_29_0943/rec_QA_run_00_block_001_trial_007.wav,06,01,Dutch,A2,True,False,True,False,False,True,True,True,True,True,True,True,No,No,No,No,No,No,2020_Jul_29_0943,nibs_stage_1,3.2.3,59.989072882728,
0,0,0,0,1,0,1,0,8,0,8,0,,,,,,,,,,,,,,,,,,,,,,,,,Listen to the question and speak out your answer!,1250.069741010666,None,1250.0361047744752,1252.0692310333252,Früher haben in Europa und Asien Neandertaler gelebt.,gelebt,1251.4192096710206,1255.136065006256,1255.552752685547,None,1266.6199206829071,None,1268.0367488861084,None,./data/Subject_06/Session_01/Exp_data/2020_Jul_29_0943/rec_QA_run_00_block_001_trial_008.wav,06,01,Dutch,A2,True,False,True,False,False,True,True,True,True,True,True,True,No,No,No,No,No,No,2020_Jul_29_0943,nibs_stage_1,3.2.3,59.989072882728,
0,0,0,0,1,0,1,0,9,0,9,0,,,,,,,,,,,,,,,,,,,,,,,,,Listen to the question and speak out your answer!,1271.1044340133667,None,1271.0704180240632,1273.1036429405212,Ich kann endlich den Namen dieser französischen Stadt aussprechen.,aussprechen,1272.4869577407837,1276.1038269996643,1276.4872607707978,1277.5039398670197,1287.6877676963807,None,1289.1045370101929,None,./data/Subject_06/Session_01/Exp_data/2020_Jul_29_0943/rec_QA_run_00_block_001_trial_009.wav,06,01,Dutch,A2,True,False,True,False,False,True,True,True,True,True,True,True,No,No,No,No,No,No,2020_Jul_29_0943,nibs_stage_1,3.2.3,59.989072882728,
0,0,0,0,1,0,1,0,10,0,10,0,,,,,,,,,,,,,,,,,,,,,,,,,Listen to the question and speak out your answer!,1292.1550340652466,None,1292.1213956832887,1294.155107975006,Ich gehe gerne alles in dem Geschäft um die Ecke einkaufen.,einkaufen,1293.504851770401,1296.9551649093628,1297.3382477283478,None,1308.7055027008057,None,1310.1222469806671,None,./data/Subject_06/Session_01/Exp_data/2020_Jul_29_0943/rec_QA_run_00_block_001_trial_010.wav,06,01,Dutch,A2,True,False,True,False,False,True,True,True,True,True,True,True,No,No,No,No,No,No,2020_Jul_29_0943,nibs_stage_1,3.2.3,59.989072882728,
0,0,0,0,1,0,1,0,11,0,11,0,,,,,,,,,,,,,,,,,,,,,,,,,Listen to the question and speak out your answer!,1313.1893680095673,None,1313.1558109760285,1315.1893029212952,"Im Kaffeehaus sitzen und Zeitung lesen, das gefällt den Österreichern.",gefällt,1314.539156627655,None,1319.339402627945,None,1329.7400698184967,1330.7569620609283,1331.1566729545593,None,./data/Subject_06/Session_01/Exp_data/2020_Jul_29_0943/rec_QA_run_00_block_001_trial_011.wav,06,01,Dutch,A2,True,False,True,False,False,True,True,True,True,True,True,True,No,No,No,No,No,No,2020_Jul_29_0943,nibs_stage_1,3.2.3,59.989072882728,
0,0,0,0,1,0,1,0,12,0,12,0,,,,,,,,,,,,,,,,,,,,,,,,,Listen to the question and speak out your answer!,1334.2069220542908,None,1334.1738800525666,1336.2071268558502,Die Zähne werden geputzt und der Bart rasiert.,rasiert,1335.5903687000275,1338.5408489704132,1338.923682641983,None,1350.7910756587983,None,1352.2078318595886,None,./data/Subject_06/Session_01/Exp_data/2020_Jul_29_0943/rec_QA_run_00_block_001_trial_012.wav,06,01,Dutch,A2,True,False,True,False,False,True,True,True,True,True,True,True,No,No,No,No,No,No,2020_Jul_29_0943,nibs_stage_1,3.2.3,59.989072882728,
0,0,0,0,1,0,1,0,13,0,13,0,,,,,,,,,,,,,,,,,,,,,,,,,Listen to the question and speak out your answer!,1355.2418959140778,None,1355.207986021042,1357.2413640022278,"Eric ist ein guter Fahrer, obwohl er gerade erst seinen Führerschein gemacht hat.",gemacht,1356.6246878623963,1361.5082709789276,1361.8916267871857,None,1371.8253957748414,None,1373.242220878601,None,./data/Subject_06/Session_01/Exp_data/2020_Jul_29_0943/rec_QA_run_00_block_001_trial_013.wav,06,01,Dutch,A2,True,False,True,False,False,True,True,True,True,True,True,True,No,No,No,No,No,No,2020_Jul_29_0943,nibs_stage_1,3.2.3,59.989072882728,
0,0,0,0,1,0,1,0,14,0,14,0,,,,,,,,,,,,,,,,,,,,,,,,,Listen to the question and speak out your answer!,1376.2758150100708,None,1376.2424088954926,1378.2758090496063,"In Europa gibt es vier Jahrezeiten, am Zentralafrika nur eine.",gibt,1377.6591116905213,None,1382.5260338306427,None,1392.8598818302155,None,1394.2766518592834,None,./data/Subject_06/Session_01/Exp_data/2020_Jul_29_0943/rec_QA_run_00_block_001_trial_014.wav,06,01,Dutch,A2,True,False,True,False,False,True,True,True,True,True,True,True,No,No,No,No,No,No,2020_Jul_29_0943,nibs_stage_1,3.2.3,59.989072882728,
0,0,0,0,1,0,1,0,15,0,15,0,,,,,,,,,,,,,,,,,,,,,,,,,Listen to the question and speak out your answer!,1397.327332019806,None,1397.2934237480165,1399.3268959522247,Ich fahre mit dem Zug nach London.,fahre,1398.676878643036,1400.9269869327545,1401.3103446483613,None,1413.877660703659,1414.8943948745728,1415.2944178581238,None,./data/Subject_06/Session_01/Exp_data/2020_Jul_29_0943/rec_QA_run_00_block_001_trial_015.wav,06,01,Dutch,A2,True,False,True,False,False,True,True,True,True,True,True,True,No,No,No,No,No,No,2020_Jul_29_0943,nibs_stage_1,3.2.3,59.989072882728,
0,0,0,0,1,0,1,0,16,0,16,0,,,,,,,,,,,,,,,,,,,,,,,,,Listen to the question and speak out your answer!,1418.3452138900757,None,1418.3112501621247,1420.3446729183197,In Österreich gibt es eine richtige Kaffeehauskultur.,gibt,1419.6946358203888,None,1423.394819688797,None,1434.89544172287,None,1436.3123059272766,None,./data/Subject_06/Session_01/Exp_data/2020_Jul_29_0943/rec_QA_run_00_block_001_trial_016.wav,06,01,Dutch,A2,True,False,True,False,False,True,True,True,True,True,True,True,No,No,No,No,No,No,2020_Jul_29_0943,nibs_stage_1,3.2.3,59.989072882728,
0,0,0,0,1,0,1,0,17,0,17,0,,,,,,,,,,,,,,,,,,,,,,,,,Listen to the question and speak out your answer!,1439.3799240589142,None,1439.3457020759583,1441.379096031189,Zu Beginn der Konferenz wird der Präsident eine Rede halten.,halten,1440.762403678894,None,1444.8626527309418,1445.8793308734894,1455.9633407115937,None,1457.379987001419,None,./data/Subject_06/Session_01/Exp_data/2020_Jul_29_0943/rec_QA_run_00_block_001_trial_017.wav,06,01,Dutch,A2,True,False,True,False,False,True,True,True,True,True,True,True,No,No,No,No,No,No,2020_Jul_29_0943,nibs_stage_1,3.2.3,59.989072882728,
0,0,0,0,1,0,1,0,18,0,18,0,,,,,,,,,,,,,,,,,,,,,,,,,Listen to the question and speak out your answer!,1460.4140808582306,None,1460.3801208972932,1462.413766860962,Das Huhn legt jeden Tag ein Ei.,legt,1461.7968008041382,1463.9469430446625,1464.3303198337555,None,1476.99762673378,None,1478.4143948554993,None,./data/Subject_06/Session_01/Exp_data/2020_Jul_29_0943/rec_QA_run_00_block_001_trial_018.wav,06,01,Dutch,A2,True,False,True,False,False,True,True,True,True,True,True,True,No,No,No,No,No,No,2020_Jul_29_0943,nibs_stage_1,3.2.3,59.989072882728,
0,0,0,0,1,0,1,0,19,0,19,0,,,,,,,,,,,,,,,,,,,,,,,,,Listen to the question and speak out your answer!,1481.4484889507294,None,1481.4145900249482,1483.4481270313263,"Die Regierung plant, mehr Arbeitsplätze für junge Menschen zu schaffen.",schaffen,1482.7979387760163,None,1487.2981857776642,None,1497.9987377643586,1499.015450000763,1499.4154629707336,None,./data/Subject_06/Session_01/Exp_data/2020_Jul_29_0943/rec_QA_run_00_block_001_trial_019.wav,06,01,Dutch,A2,True,False,True,False,False,True,True,True,True,True,True,True,No,No,No,No,No,No,2020_Jul_29_0943,nibs_stage_1,3.2.3,59.989072882728,
0,0,0,0,1,0,1,0,20,0,20,0,,,,,,,,,,,,,,,,,,,,,,,,,Listen to the question and speak out your answer!,1502.4995908737183,None,1502.465774869919,1504.499065876007,"Als das Spiel unentschieden endete, wurde es um zweimal 15 Minuten verlängert.",endete,1503.8490316390992,None,1509.316046667099,None,1519.0498196601868,None,1520.466547012329,None,./data/Subject_06/Session_01/Exp_data/2020_Jul_29_0943/rec_QA_run_00_block_001_trial_020.wav,06,01,Dutch,A2,True,False,True,False,False,True,True,True,True,True,True,True,No,No,No,No,No,No,2020_Jul_29_0943,nibs_stage_1,3.2.3,59.989072882728,
0,0,0,0,1,0,1,0,21,0,21,0,,,,,,,,,,,,,,,,,,,,,,,,,Listen to the question and speak out your answer!,1523.5509719848633,None,1523.5167318344118,1525.5501470565796,Die Touristen besichtigten alle Sehenswürdigkeiten der Stadt.,besichtigten,1524.9001287937165,None,1529.067137670517,1530.0837309360504,1540.101000738144,1541.1176390647888,1541.5176620483398,None,./data/Subject_06/Session_01/Exp_data/2020_Jul_29_0943/rec_QA_run_00_block_001_trial_021.wav,06,01,Dutch,A2,True,False,True,False,False,True,True,True,True,True,True,True,No,No,No,No,No,No,2020_Jul_29_0943,nibs_stage_1,3.2.3,59.989072882728,
0,0,0,0,1,0,1,0,22,0,22,0,,,,,,,,,,,,,,,,,,,,,,,,,Listen to the question and speak out your answer!,1544.5855288505554,None,1544.5512019634248,1546.584594964981,Der Konzern kontrolliert die Mehrheit der Aktion.,kontrolliert,1545.9679016590119,1548.9513268470764,1549.334748697281,None,1561.168696832657,1562.1855309009552,1562.5854580402374,None,./data/Subject_06/Session_01/Exp_data/2020_Jul_29_0943/rec_QA_run_00_block_001_trial_022.wav,06,01,Dutch,A2,True,False,True,False,False,True,True,True,True,True,True,True,No,No,No,No,No,No,2020_Jul_29_0943,nibs_stage_1,3.2.3,59.989072882728,
0,0,0,0,1,0,1,0,23,0,23,0,,,,,,,,,,,,,,,,,,,,,,,,,Listen to the question and speak out your answer!,1565.602355003357,None,1565.5690311908722,1567.6024360656738,Der Bau des Gebäudes hat 3 Jahre gedauert und ist endlich fast abgeschlossen.,abgeschlossen,1566.9523047924042,None,1571.9858247756958,1573.0026469230652,1582.1531238079071,1583.1698369979858,1583.5698759555817,None,./data/Subject_06/Session_01/Exp_data/2020_Jul_29_0943/rec_QA_run_00_block_001_trial_023.wav,06,01,Dutch,A2,True,False,True,False,False,True,True,True,True,True,True,True,No,No,No,No,No,No,2020_Jul_29_0943,nibs_stage_1,3.2.3,59.989072882728,
0,0,0,0,1,0,1,0,24,0,24,0,,,,,,,,,,,,,,,,,,,,,,,,,Listen to the question and speak out your answer!,1586.687330007553,None,1586.653572320938,1588.6868908405304,"Ich rechne fest damit, dass er kommt.",rechne,1588.0700966835022,None,1590.836897802353,1591.8536150455475,1603.2708956718445,None,1604.6876108646393,None,./data/Subject_06/Session_01/Exp_data/2020_Jul_29_0943/rec_QA_run_00_block_001_trial_024.wav,06,01,Dutch,A2,True,False,True,False,False,True,True,True,True,True,True,True,No,No,No,No,No,No,2020_Jul_29_0943,nibs_stage_1,3.2.3,59.989072882728,
