run.thisRepN,run.thisTrialN,run.thisN,run.thisIndex,QA_block.thisRepN,QA_block.thisTrialN,QA_block.thisN,QA_block.thisIndex,QA_trial.thisRepN,QA_trial.thisTrialN,QA_trial.thisN,QA_trial.thisIndex,fade_in_text.text,fade_in_text.started,fade_in_text.stopped,RS_intro_title.started,RS_intro_title.stopped,RS_intro_text.text,RS_intro_text.started,RS_intro_text.stopped,RS_intro_audio.started,RS_intro_audio.stopped,RS_rec_text.text,RS_rec_text.started,RS_rec_text.stopped,Pause_cont.started,Pause_cont.stopped,QA_intro_title.started,QA_intro_title.stopped,QA_intro_text.text,QA_intro_text.started,QA_intro_text.stopped,QA_intro_audio.started,QA_intro_audio.stopped,QA_intro_cont.started,QA_intro_cont.stopped,QA_rec_text.text,QA_rec_text.started,QA_rec_text.stopped,QA_rec_beep_hint.started,QA_rec_beep_hint.stopped,QA_rec_question.sen_text,QA_rec_question.cen_text,QA_rec_question.started,QA_rec_question.stopped,QA_rec_beep_start.started,QA_rec_beep_start.stopped,QA_rec_beep_end.started,QA_rec_beep_end.stopped,QA_rec_break.started,QA_rec_break.stopped,filename,participant,session,First language,German level,Full_screen,Instruction,Intro,Artifact,Cali_pre,Fade_in_out,Artifact_within,Resting_State,QA,Pause,Cali_post,End,Breakpoint_Cali_pre_trial,Breakpoint_Run,Breakpoint_RS_block,Breakpoint_QA_block,Breakpoint_QA_trial,Breakpoint_Cali_post_trial,date,expName,psychopyVersion,frameRate,
1,0,1,0,0,0,0,0,0,0,0,0,Please remain seated until further instruction via the earphone.,61.70494103431702,None,272.1496539115906,None," - Task: Keep seated and relaxed with either      
             opening or closing eyes                  
 - Beep sound with decreasing pitch: Block finish 
",272.1496539115906,None,272.14916172027586,None,"Please keep relaxed and open your eyes.
Note: Blinking is allowed.",295.16752886772156,475.1772508621216,478.5603539943695,None,493.42822098731995,533.4632389545441," - Task: Listen to the question& Speak out answer 
 - Melodious beep sound: Trial start              
 - Silent sound (blank): censored word            
 - Beep sound with increasing pitch: Rec. start   
 - Beep sound with decreasing pitch: Rec. finish  
",493.42822098731995,533.4632389545441,493.42729992866515,None,532.8301229476929,None,Listen to the question and speak out your answer!,539.0135369300842,None,538.9965695381165,540.9975140094757,Ich habe seine Telefonnummer auf einem Zettel notiert.,notiert,540.3805865764618,None,543.9973425388337,544.9974188804626,555.5813467025757,None,556.9813668727875,557.9814169406891,./data/Subject_07/Session_03/Exp_data/2020_Jul_26_1706/rec_QA_run_01_block_000_trial_000.wav,07,03,English,B1,True,False,True,False,False,True,True,True,True,True,True,True,No,1,No,No,No,No,2020_Jul_26_1706,nibs_stage_1,3.2.3,59.99413547622079,
1,0,1,0,0,0,0,0,1,0,1,0,,,,,,,,,,,,,,,,,,,,,,,,,Listen to the question and speak out your answer!,560.0483889579773,None,560.0311209201814,562.031644821167,Er hat die Verbindung zwischen zwei Zufälligkeiten hergestellt.,hergestellt,561.4317695617676,565.0985610485077,565.5154075145722,None,576.6323916435242,None,578.0324969291687,579.0325589179993,./data/Subject_07/Session_03/Exp_data/2020_Jul_26_1706/rec_QA_run_01_block_000_trial_001.wav,07,03,English,B1,True,False,True,False,False,True,True,True,True,True,True,True,No,1,No,No,No,No,2020_Jul_26_1706,nibs_stage_1,3.2.3,59.99413547622079,
1,0,1,0,0,0,0,0,2,0,2,0,,,,,,,,,,,,,,,,,,,,,,,,,Listen to the question and speak out your answer!,581.0825679302216,None,581.0656517982484,583.0661020278931,"Sie hat Schlafmittel genommen, damit sie gut schlafen kann.",schlafen,582.4660505771637,None,586.4495787143708,None,597.6669556617737,None,599.0666489601135,600.0667779445648,./data/Subject_07/Session_03/Exp_data/2020_Jul_26_1706/rec_QA_run_01_block_000_trial_002.wav,07,03,English,B1,True,False,True,False,False,True,True,True,True,True,True,True,No,1,No,No,No,No,2020_Jul_26_1706,nibs_stage_1,3.2.3,59.99413547622079,
1,0,1,0,0,0,0,0,3,0,3,0,,,,,,,,,,,,,,,,,,,,,,,,,Listen to the question and speak out your answer!,602.1002550125122,None,602.0998708248139,604.1007590293884,"Denk nicht so viel darüber nach, das wird nichts bringen.",bringen,603.4838075160981,606.5673298835754,606.9673296928406,607.9673669338226,618.6843845367432,None,620.0843889713287,621.0845198631287,./data/Subject_07/Session_03/Exp_data/2020_Jul_26_1706/rec_QA_run_01_block_000_trial_003.wav,07,03,English,B1,True,False,True,False,False,True,True,True,True,True,True,True,No,1,No,No,No,No,2020_Jul_26_1706,nibs_stage_1,3.2.3,59.99413547622079,
1,0,1,0,0,0,0,0,4,0,4,0,,,,,,,,,,,,,,,,,,,,,,,,,Listen to the question and speak out your answer!,623.1179718971252,None,623.100948047638,625.1014578342438,Die Stadt liegt nahe am Meer.,liegt,624.5013265132905,None,626.6848885536194,None,639.7023255348206,None,641.1022419929504,642.1024169921875,./data/Subject_07/Session_03/Exp_data/2020_Jul_26_1706/rec_QA_run_01_block_000_trial_004.wav,07,03,English,B1,True,False,True,False,False,True,True,True,True,True,True,True,No,1,No,No,No,No,2020_Jul_26_1706,nibs_stage_1,3.2.3,59.99413547622079,
1,0,1,0,0,0,0,0,5,0,5,0,,,,,,,,,,,,,,,,,,,,,,,,,Listen to the question and speak out your answer!,644.1529579162598,None,644.1355098724366,646.1358308792114,"Ich habe den schrecklichen Verdacht, dass Hans das Geld gestohlen hat.",gestohlen,645.5360567092896,649.4696400165558,649.8527197360993,None,660.7366566181183,None,662.1366879940033,663.1367728710175,./data/Subject_07/Session_03/Exp_data/2020_Jul_26_1706/rec_QA_run_01_block_000_trial_005.wav,07,03,English,B1,True,False,True,False,False,True,True,True,True,True,True,True,No,1,No,No,No,No,2020_Jul_26_1706,nibs_stage_1,3.2.3,59.99413547622079,
1,0,1,0,0,0,0,0,6,0,6,0,,,,,,,,,,,,,,,,,,,,,,,,,Listen to the question and speak out your answer!,665.1707599163055,None,665.1532010555268,667.1536250114441,Taktlose Fragen machen mich wütend.,machen,666.5369295597077,None,669.5037805557251,670.5037848949432,681.7376937389374,None,683.1377878189087,684.1378350257874,./data/Subject_07/Session_03/Exp_data/2020_Jul_26_1706/rec_QA_run_01_block_000_trial_006.wav,07,03,English,B1,True,False,True,False,False,True,True,True,True,True,True,True,No,1,No,No,No,No,2020_Jul_26_1706,nibs_stage_1,3.2.3,59.99413547622079,
1,0,1,0,0,0,0,0,7,0,7,0,,,,,,,,,,,,,,,,,,,,,,,,,Listen to the question and speak out your answer!,686.2051739692688,None,686.1876217365266,688.1880459785461,Es besteht eine starke Verbindung zwischen Musik und Kunst.,besteht,687.5880236148835,None,691.5548965454102,None,702.7724647045136,703.7726149559021,704.1725699901581,705.1724989414215,./data/Subject_07/Session_03/Exp_data/2020_Jul_26_1706/rec_QA_run_01_block_000_trial_007.wav,07,03,English,B1,True,False,True,False,False,True,True,True,True,True,True,True,No,1,No,No,No,No,2020_Jul_26_1706,nibs_stage_1,3.2.3,59.99413547622079,
1,0,1,0,0,0,0,0,8,0,8,0,,,,,,,,,,,,,,,,,,,,,,,,,Listen to the question and speak out your answer!,707.2559859752655,None,707.2222677707673,709.2226958274841,Der Amazon Kurier hat das Paket geliefert.,geliefert,708.6226446151734,None,711.8394546031952,712.8561129570007,723.8234006881714,None,725.2235510349274,726.2236108779907,./data/Subject_07/Session_03/Exp_data/2020_Jul_26_1706/rec_QA_run_01_block_000_trial_008.wav,07,03,English,B1,True,False,True,False,False,True,True,True,True,True,True,True,No,1,No,No,No,No,2020_Jul_26_1706,nibs_stage_1,3.2.3,59.99413547622079,
1,0,1,0,0,0,0,0,9,0,9,0,,,,,,,,,,,,,,,,,,,,,,,,,Listen to the question and speak out your answer!,728.2740910053253,None,728.2567037582398,730.2902870178223,An der nächsten Kreuzung müssen Sie rechts abbiegen.,abbiegen,729.6403486251832,None,732.8738116741181,None,744.8411006450654,745.8577630519867,746.2578549385071,None,./data/Subject_07/Session_03/Exp_data/2020_Jul_26_1706/rec_QA_run_01_block_000_trial_009.wav,07,03,English,B1,True,False,True,False,False,True,True,True,True,True,True,True,No,1,No,No,No,No,2020_Jul_26_1706,nibs_stage_1,3.2.3,59.99413547622079,
1,0,1,0,0,0,0,0,10,0,10,0,,,,,,,,,,,,,,,,,,,,,,,,,Listen to the question and speak out your answer!,749.308198928833,None,749.2909068107606,751.3081049919128,"Die Schneiderin änderte das Kleid, weil das Kleid zu groß ist.",änderte,750.6913306236268,754.6415438652039,755.0251836299897,756.0418689250946,765.8921875476838,None,767.3088908195496,None,./data/Subject_07/Session_03/Exp_data/2020_Jul_26_1706/rec_QA_run_01_block_000_trial_010.wav,07,03,English,B1,True,False,True,False,False,True,True,True,True,True,True,True,No,1,No,No,No,No,2020_Jul_26_1706,nibs_stage_1,3.2.3,59.99413547622079,
1,0,1,0,0,0,0,0,11,0,11,0,,,,,,,,,,,,,,,,,,,,,,,,,Listen to the question and speak out your answer!,770.3593549728394,None,770.34202375412,772.3593790531158,Das Volleyballspiel wird in einer Sporthalle ausgetragen.,ausgetragen,771.7426845550538,None,775.5426487445832,None,786.9270057201386,787.9435119628906,788.3435649871826,None,./data/Subject_07/Session_03/Exp_data/2020_Jul_26_1706/rec_QA_run_01_block_000_trial_011.wav,07,03,English,B1,True,False,True,False,False,True,True,True,True,True,True,True,No,1,No,No,No,No,2020_Jul_26_1706,nibs_stage_1,3.2.3,59.99413547622079,
1,0,1,0,0,0,0,0,12,0,12,0,,,,,,,,,,,,,,,,,,,,,,,,,Listen to the question and speak out your answer!,791.393846988678,None,791.376453781128,793.393846988678,"Er beschäftigt sich damit, diese kaputte Maschine zu reparieren.",reparieren,792.7768735408783,None,797.143770647049,None,807.9776875495911,None,809.3944380283356,None,./data/Subject_07/Session_03/Exp_data/2020_Jul_26_1706/rec_QA_run_01_block_000_trial_012.wav,07,03,English,B1,True,False,True,False,False,True,True,True,True,True,True,True,No,1,No,No,No,No,2020_Jul_26_1706,nibs_stage_1,3.2.3,59.99413547622079,
1,0,1,0,0,0,0,0,13,0,13,0,,,,,,,,,,,,,,,,,,,,,,,,,Listen to the question and speak out your answer!,812.4279580116272,None,812.4109911441803,814.4281148910522,Wir schneiden den Apfel in zwei Hälften. ,schneiden,813.8114196777344,None,816.9115876674653,None,829.0123517036438,None,830.4290118217468,None,./data/Subject_07/Session_03/Exp_data/2020_Jul_26_1706/rec_QA_run_01_block_000_trial_013.wav,07,03,English,B1,True,False,True,False,False,True,True,True,True,True,True,True,No,1,No,No,No,No,2020_Jul_26_1706,nibs_stage_1,3.2.3,59.99413547622079,
1,0,1,0,0,0,0,0,14,0,14,0,,,,,,,,,,,,,,,,,,,,,,,,,Listen to the question and speak out your answer!,833.4798729419708,None,833.4619628429414,835.4791419506073,Unser Biolehrer unterrichtet uns auch machmal im Grünen.,unterrichtet,834.8625945568085,None,838.6959435462952,None,850.0632166385651,None,851.480064868927,None,./data/Subject_07/Session_03/Exp_data/2020_Jul_26_1706/rec_QA_run_01_block_000_trial_014.wav,07,03,English,B1,True,False,True,False,False,True,True,True,True,True,True,True,No,1,No,No,No,No,2020_Jul_26_1706,nibs_stage_1,3.2.3,59.99413547622079,
1,0,1,0,0,0,0,0,15,0,15,0,,,,,,,,,,,,,,,,,,,,,,,,,Listen to the question and speak out your answer!,854.5477228164673,None,854.5131277084351,856.5469100475311,Der Präsident diskutierte das Thema auf der Pressekonferenz nicht.,diskutierte,855.9302045822144,None,860.5637945652009,861.5805959701538,871.131001663208,None,872.5477659702301,None,./data/Subject_07/Session_03/Exp_data/2020_Jul_26_1706/rec_QA_run_01_block_000_trial_015.wav,07,03,English,B1,True,False,True,False,False,True,True,True,True,True,True,True,No,1,No,No,No,No,2020_Jul_26_1706,nibs_stage_1,3.2.3,59.99413547622079,
1,0,1,0,0,0,0,0,16,0,16,0,,,,,,,,,,,,,,,,,,,,,,,,,Listen to the question and speak out your answer!,875.5821619033813,None,875.5641575813294,877.5814728736877,"Es ist Zeit, diesen Ort zu verlassen.",verlassen,876.9646436691285,879.3481149673462,879.7316927433014,None,892.1654376506806,None,893.5822720527649,None,./data/Subject_07/Session_03/Exp_data/2020_Jul_26_1706/rec_QA_run_01_block_000_trial_016.wav,07,03,English,B1,True,False,True,False,False,True,True,True,True,True,True,True,No,1,No,No,No,No,2020_Jul_26_1706,nibs_stage_1,3.2.3,59.99413547622079,
1,0,1,0,0,0,0,0,17,0,17,0,,,,,,,,,,,,,,,,,,,,,,,,,Listen to the question and speak out your answer!,896.5993139743805,None,896.5820309162141,898.5993809700012,"Sein Kommentar ist immer so vage, dass niemand weiß, was er meint.",meint,897.9824215888978,902.1995038986206,902.5827595710755,None,913.1833097457886,None,914.5999569892883,None,./data/Subject_07/Session_03/Exp_data/2020_Jul_26_1706/rec_QA_run_01_block_000_trial_017.wav,07,03,English,B1,True,False,True,False,False,True,True,True,True,True,True,True,No,1,No,No,No,No,2020_Jul_26_1706,nibs_stage_1,3.2.3,59.99413547622079,
1,0,1,0,0,0,0,0,18,0,18,0,,,,,,,,,,,,,,,,,,,,,,,,,Listen to the question and speak out your answer!,917.633712053299,None,917.6002336978913,919.6336028575897,"Ich komme, soweit es meine Zeit erlaubt.",erlaubt,919.0168935775757,921.6003968715668,921.9836775779725,None,934.2178055763245,935.2343809604645,935.6346888542175,None,./data/Subject_07/Session_03/Exp_data/2020_Jul_26_1706/rec_QA_run_01_block_000_trial_018.wav,07,03,English,B1,True,False,True,False,False,True,True,True,True,True,True,True,No,1,No,No,No,No,2020_Jul_26_1706,nibs_stage_1,3.2.3,59.99413547622079,
1,0,1,0,0,0,0,0,19,0,19,0,,,,,,,,,,,,,,,,,,,,,,,,,Listen to the question and speak out your answer!,938.668046951294,None,938.6342038154603,940.6679549217224,"Thomas hat schon so kurze Haare, er muss sich nicht kämmen.",kämmen,940.0512966632843,None,943.8514785289765,None,955.2521607398987,None,956.6688430309296,None,./data/Subject_07/Session_03/Exp_data/2020_Jul_26_1706/rec_QA_run_01_block_000_trial_019.wav,07,03,English,B1,True,False,True,False,False,True,True,True,True,True,True,True,No,1,No,No,No,No,2020_Jul_26_1706,nibs_stage_1,3.2.3,59.99413547622079,
1,0,1,0,0,0,0,0,20,0,20,0,,,,,,,,,,,,,,,,,,,,,,,,,Listen to the question and speak out your answer!,959.6861989498138,None,959.6686827182771,961.685760974884,"Wenn Sie mit diesem Produkt nicht zufrieden sind, können wir eine Alternative anbieten.",anbieten,961.0690867424012,965.9860029220581,966.369326543808,None,976.2698585510254,977.2865958213806,977.68665599823,None,./data/Subject_07/Session_03/Exp_data/2020_Jul_26_1706/rec_QA_run_01_block_000_trial_020.wav,07,03,English,B1,True,False,True,False,False,True,True,True,True,True,True,True,No,1,No,No,No,No,2020_Jul_26_1706,nibs_stage_1,3.2.3,59.99413547622079,
1,0,1,0,0,0,0,0,21,0,21,0,,,,,,,,,,,,,,,,,,,,,,,,,Listen to the question and speak out your answer!,980.7546768188477,None,980.7197638988496,982.7535729408264,Das Kleid wird fünfzehn Euro kosten.,kosten,982.1368345737458,984.5871708393097,984.9370576858521,None,997.3376507282258,998.3543608188629,998.7543878555298,None,./data/Subject_07/Session_03/Exp_data/2020_Jul_26_1706/rec_QA_run_01_block_000_trial_021.wav,07,03,English,B1,True,False,True,False,False,True,True,True,True,True,True,True,No,1,No,No,No,No,2020_Jul_26_1706,nibs_stage_1,3.2.3,59.99413547622079,
1,0,1,0,0,0,0,0,22,0,22,0,,,,,,,,,,,,,,,,,,,,,,,,,Listen to the question and speak out your answer!,1001.7888729572296,None,1001.7544998168946,1003.7881059646606,"Mein Ziel ist, in der Prüfung gute Ergebnisse zu bekommen.",bekommen,1003.1715456962586,1006.7884058952332,1007.1714677333832,1008.1882400512695,1018.3721637248993,None,1019.7887389659882,None,./data/Subject_07/Session_03/Exp_data/2020_Jul_26_1706/rec_QA_run_01_block_000_trial_022.wav,07,03,English,B1,True,False,True,False,False,True,True,True,True,True,True,True,No,1,No,No,No,No,2020_Jul_26_1706,nibs_stage_1,3.2.3,59.99413547622079,
1,0,1,0,0,0,0,0,23,0,23,0,,,,,,,,,,,,,,,,,,,,,,,,,Listen to the question and speak out your answer!,1022.8230488300323,None,1022.7891017436982,1024.8226578235626,"Ich muss einen Schirm holen, weil es regnet.",holen,1024.1723947048188,None,1027.2394315719605,None,1039.3734936237336,None,1040.7899129390717,None,./data/Subject_07/Session_03/Exp_data/2020_Jul_26_1706/rec_QA_run_01_block_000_trial_023.wav,07,03,English,B1,True,False,True,False,False,True,True,True,True,True,True,True,No,1,No,No,No,No,2020_Jul_26_1706,nibs_stage_1,3.2.3,59.99413547622079,
1,0,1,0,0,0,0,0,24,0,24,0,,,,,,,,,,,,,,,,,,,,,,,,,Listen to the question and speak out your answer!,1043.8575630187988,None,1043.8231848716737,1045.8569889068604,Seit der Urzeit haben die Menschen an Götter geglaubt.,geglaubt,1045.2402035713196,None,1048.6739556312561,None,1060.4414815425873,None,1061.8577728271484,None,./data/Subject_07/Session_03/Exp_data/2020_Jul_26_1706/rec_QA_run_01_block_000_trial_024.wav,07,03,English,B1,True,False,True,False,False,True,True,True,True,True,True,True,No,1,No,No,No,No,2020_Jul_26_1706,nibs_stage_1,3.2.3,59.99413547622079,
1,0,1,0,0,0,0,0,,,,,,,,,,,,,,,,,,1065.8748228549957,None,,,,,,,,,,,,,,,,,,,,,,,,,,07,03,English,B1,True,False,True,False,False,True,True,True,True,True,True,True,No,1,No,No,No,No,2020_Jul_26_1706,nibs_stage_1,3.2.3,59.99413547622079,
1,0,1,0,1,0,1,0,0,0,0,0,,,,,,,,,,,,,,,,,,,,,,,,,Listen to the question and speak out your answer!,1080.242928981781,None,1080.225346183777,1082.2421000003815,Hans und Tina heirateten am Donnerstag in der Kirche.,heirateten,1081.6253826141358,None,1085.6924886226655,None,1096.8261847019196,1097.8429050445557,1098.2431938648224,None,./data/Subject_07/Session_03/Exp_data/2020_Jul_26_1706/rec_QA_run_01_block_001_trial_000.wav,07,03,English,B1,True,False,True,False,False,True,True,True,True,True,True,True,No,1,No,No,No,No,2020_Jul_26_1706,nibs_stage_1,3.2.3,59.99413547622079,
1,0,1,0,1,0,1,0,1,0,1,0,,,,,,,,,,,,,,,,,,,,,,,,,Listen to the question and speak out your answer!,1101.2767038345337,None,1101.2594145298006,1103.2765438556671,Warum antwortest du nicht auf meine Frage?,antwortest,1102.6264936447144,1105.3433248996735,1105.7602667331696,None,1117.8273036003113,None,1119.2443459033966,None,./data/Subject_07/Session_03/Exp_data/2020_Jul_26_1706/rec_QA_run_01_block_001_trial_001.wav,07,03,English,B1,True,False,True,False,False,True,True,True,True,True,True,True,No,1,No,No,No,No,2020_Jul_26_1706,nibs_stage_1,3.2.3,59.99413547622079,
1,0,1,0,1,0,1,0,2,0,2,0,,,,,,,,,,,,,,,,,,,,,,,,,Listen to the question and speak out your answer!,1122.311735868454,None,1122.2938674449922,1124.311038017273,Leni bewegt beim Lesen die Lippen.,bewegt,1123.6609336853028,1125.8443808555603,1126.2610806941987,1127.2777938842773,1138.8617345809937,None,1140.278571844101,None,./data/Subject_07/Session_03/Exp_data/2020_Jul_26_1706/rec_QA_run_01_block_001_trial_002.wav,07,03,English,B1,True,False,True,False,False,True,True,True,True,True,True,True,No,1,No,No,No,No,2020_Jul_26_1706,nibs_stage_1,3.2.3,59.99413547622079,
1,0,1,0,1,0,1,0,3,0,3,0,,,,,,,,,,,,,,,,,,,,,,,,,Listen to the question and speak out your answer!,1143.3295588493347,None,1143.3116308689118,1145.328943014145,"Er benutzt Twitter, um mit anderen zu chatten.",benutzt,1144.6787135124207,None,1147.8790065765381,None,1159.896174621582,None,1161.3131289482117,None,./data/Subject_07/Session_03/Exp_data/2020_Jul_26_1706/rec_QA_run_01_block_001_trial_003.wav,07,03,English,B1,True,False,True,False,False,True,True,True,True,True,True,True,No,1,No,No,No,No,2020_Jul_26_1706,nibs_stage_1,3.2.3,59.99413547622079,
1,0,1,0,1,0,1,0,4,0,4,0,,,,,,,,,,,,,,,,,,,,,,,,,Listen to the question and speak out your answer!,1164.38067984581,None,1164.3461567401887,1166.380306005478,Der Ton macht die Musik.,macht,1165.7300207138062,1167.3801000118256,1167.763498735428,1168.7800209522247,1180.947353553772,None,1182.36412191391,None,./data/Subject_07/Session_03/Exp_data/2020_Jul_26_1706/rec_QA_run_01_block_001_trial_004.wav,07,03,English,B1,True,False,True,False,False,True,True,True,True,True,True,True,No,1,No,No,No,No,2020_Jul_26_1706,nibs_stage_1,3.2.3,59.99413547622079,
1,0,1,0,1,0,1,0,5,0,5,0,,,,,,,,,,,,,,,,,,,,,,,,,Listen to the question and speak out your answer!,1185.4317679405212,None,1185.4144063949586,1187.4309740066528,"Meine Geschichte ist wahr, ich habe keine Lügen erzählt.",erzählt,1186.780959558487,None,1190.514746618271,None,1201.9819306850434,None,1203.3987300395966,None,./data/Subject_07/Session_03/Exp_data/2020_Jul_26_1706/rec_QA_run_01_block_001_trial_005.wav,07,03,English,B1,True,False,True,False,False,True,True,True,True,True,True,True,No,1,No,No,No,No,2020_Jul_26_1706,nibs_stage_1,3.2.3,59.99413547622079,
1,0,1,0,1,0,1,0,6,0,6,0,,,,,,,,,,,,,,,,,,,,,,,,,Listen to the question and speak out your answer!,1206.4659838676453,None,1206.4318877696992,1208.4652910232544,Ihre Kleider riechen nach Rauch.,riechen,1207.8486785411835,None,1210.4155106067658,1211.432214975357,1223.0495347499848,1224.0662469863892,1224.4662408828735,None,./data/Subject_07/Session_03/Exp_data/2020_Jul_26_1706/rec_QA_run_01_block_001_trial_006.wav,07,03,English,B1,True,False,True,False,False,True,True,True,True,True,True,True,No,1,No,No,No,No,2020_Jul_26_1706,nibs_stage_1,3.2.3,59.99413547622079,
1,0,1,0,1,0,1,0,7,0,7,0,,,,,,,,,,,,,,,,,,,,,,,,,Listen to the question and speak out your answer!,1227.483747959137,None,1227.4493681907654,1229.4831800460815,Die Armbanduhr ist aus rostfreiem Stahl gefertigt und wird nicht rosten.,rosten,1228.8331267356873,None,1233.5667075634003,None,1244.0340096473694,1245.0505728721619,1245.4505739212036,None,./data/Subject_07/Session_03/Exp_data/2020_Jul_26_1706/rec_QA_run_01_block_001_trial_007.wav,07,03,English,B1,True,False,True,False,False,True,True,True,True,True,True,True,No,1,No,No,No,No,2020_Jul_26_1706,nibs_stage_1,3.2.3,59.99413547622079,
1,0,1,0,1,0,1,0,8,0,8,0,,,,,,,,,,,,,,,,,,,,,,,,,Listen to the question and speak out your answer!,1248.51815199852,None,1248.4840747356416,1250.5175919532776,"Zur Not kann ich noch was kochen, aber ich würde lieber im Restaurant essen",kochen,1249.867493581772,None,1254.2677766799927,None,1265.0683426380158,None,1266.485111951828,None,./data/Subject_07/Session_03/Exp_data/2020_Jul_26_1706/rec_QA_run_01_block_001_trial_008.wav,07,03,English,B1,True,False,True,False,False,True,True,True,True,True,True,True,No,1,No,No,No,No,2020_Jul_26_1706,nibs_stage_1,3.2.3,59.99413547622079,
1,0,1,0,1,0,1,0,9,0,9,0,,,,,,,,,,,,,,,,,,,,,,,,,Listen to the question and speak out your answer!,1269.552391052246,None,1269.5349474906923,1271.552284002304,Planeten kreisen um eine Sonne.,kreisen,1270.9353525161744,1273.1187798976898,1273.5021247386933,None,1286.1362037181855,None,1287.5529808998108,None,./data/Subject_07/Session_03/Exp_data/2020_Jul_26_1706/rec_QA_run_01_block_001_trial_009.wav,07,03,English,B1,True,False,True,False,False,True,True,True,True,True,True,True,No,1,No,No,No,No,2020_Jul_26_1706,nibs_stage_1,3.2.3,59.99413547622079,
1,0,1,0,1,0,1,0,10,0,10,0,,,,,,,,,,,,,,,,,,,,,,,,,Listen to the question and speak out your answer!,1290.6042530536652,None,1290.5693490028382,1292.6031429767609,"Da Mark gestern sehr spät aufgestanden ist, wird er heute nicht früh aufstehen.",aufstehen,1291.9531037330628,None,1297.0200767040253,1298.0369098186493,1307.1541115760804,None,1308.5708529949188,None,./data/Subject_07/Session_03/Exp_data/2020_Jul_26_1706/rec_QA_run_01_block_001_trial_010.wav,07,03,English,B1,True,False,True,False,False,True,True,True,True,True,True,True,No,1,No,No,No,No,2020_Jul_26_1706,nibs_stage_1,3.2.3,59.99413547622079,
1,0,1,0,1,0,1,0,11,0,11,0,,,,,,,,,,,,,,,,,,,,,,,,,Listen to the question and speak out your answer!,1311.6216988563538,None,1311.6039408683778,1313.621192932129,Der Regenbogen besteht aus vielen Farben.,besteht,1313.0042297363282,None,1316.1043695926667,None,1328.2050246715546,None,1329.6217489242554,None,./data/Subject_07/Session_03/Exp_data/2020_Jul_26_1706/rec_QA_run_01_block_001_trial_011.wav,07,03,English,B1,True,False,True,False,False,True,True,True,True,True,True,True,No,1,No,No,No,No,2020_Jul_26_1706,nibs_stage_1,3.2.3,59.99413547622079,
1,0,1,0,1,0,1,0,12,0,12,0,,,,,,,,,,,,,,,,,,,,,,,,,Listen to the question and speak out your answer!,1332.6560609340668,None,1332.621555709839,1334.6557309627533,Peter sitzt den ganzen Tag am Computer.,sitzt,1334.0387196063996,None,1337.272351694107,None,1349.239443731308,1350.2561450004578,1350.6561799049377,None,./data/Subject_07/Session_03/Exp_data/2020_Jul_26_1706/rec_QA_run_01_block_001_trial_012.wav,07,03,English,B1,True,False,True,False,False,True,True,True,True,True,True,True,No,1,No,No,No,No,2020_Jul_26_1706,nibs_stage_1,3.2.3,59.99413547622079,
1,0,1,0,1,0,1,0,13,0,13,0,,,,,,,,,,,,,,,,,,,,,,,,,Listen to the question and speak out your answer!,1353.6736450195312,None,1353.6393391609192,1355.6733238697052,An seinem Mantel fehlt ein Knopf.,fehlt,1355.023070526123,None,1357.5568127155304,None,1370.2239205360413,None,1371.6406078338623,None,./data/Subject_07/Session_03/Exp_data/2020_Jul_26_1706/rec_QA_run_01_block_001_trial_013.wav,07,03,English,B1,True,False,True,False,False,True,True,True,True,True,True,True,No,1,No,No,No,No,2020_Jul_26_1706,nibs_stage_1,3.2.3,59.99413547622079,
1,0,1,0,1,0,1,0,14,0,14,0,,,,,,,,,,,,,,,,,,,,,,,,,Listen to the question and speak out your answer!,1374.6916799545288,None,1374.6737567424775,1376.691172838211,Charles Darwin hat die Natur erforscht.,erforscht,1376.0744287490845,1378.4911370277405,1378.8409845352173,None,1391.275032711029,None,1392.6920218467712,None,./data/Subject_07/Session_03/Exp_data/2020_Jul_26_1706/rec_QA_run_01_block_001_trial_014.wav,07,03,English,B1,True,False,True,False,False,True,True,True,True,True,True,True,No,1,No,No,No,No,2020_Jul_26_1706,nibs_stage_1,3.2.3,59.99413547622079,
1,0,1,0,1,0,1,0,15,0,15,0,,,,,,,,,,,,,,,,,,,,,,,,,Listen to the question and speak out your answer!,1395.7590799331665,None,1395.725110912323,1397.7586710453033,Alle Schüler müssen die Vorschrift halten.,halten,1397.1089016914368,1399.525629043579,1399.9425277233124,1400.9590759277344,1412.3093945503235,None,1413.726191997528,None,./data/Subject_07/Session_03/Exp_data/2020_Jul_26_1706/rec_QA_run_01_block_001_trial_015.wav,07,03,English,B1,True,False,True,False,False,True,True,True,True,True,True,True,No,1,No,No,No,No,2020_Jul_26_1706,nibs_stage_1,3.2.3,59.99413547622079,
1,0,1,0,1,0,1,0,16,0,16,0,,,,,,,,,,,,,,,,,,,,,,,,,Listen to the question and speak out your answer!,1416.7938809394836,None,1416.7759645938875,1418.7933440208435,Die kluge Gebäudekonstruktion kann das Haus vor Windschäden schützen.,schützen,1418.1433195590973,1422.2599530220032,1422.6433586597443,1423.6600348949432,1433.344142627716,None,1434.7609310150146,None,./data/Subject_07/Session_03/Exp_data/2020_Jul_26_1706/rec_QA_run_01_block_001_trial_016.wav,07,03,English,B1,True,False,True,False,False,True,True,True,True,True,True,True,No,1,No,No,No,No,2020_Jul_26_1706,nibs_stage_1,3.2.3,59.99413547622079,
1,0,1,0,1,0,1,0,17,0,17,0,,,,,,,,,,,,,,,,,,,,,,,,,Listen to the question and speak out your answer!,1437.8276979923248,None,1437.7937318325044,1439.827535867691,Das Flugzeug fliegt den vorgeschriebenen Kurs.,fliegt,1439.1776475429535,None,1442.5779346942902,1443.5945060253143,1454.3782956123353,None,1455.7950580120087,None,./data/Subject_07/Session_03/Exp_data/2020_Jul_26_1706/rec_QA_run_01_block_001_trial_017.wav,07,03,English,B1,True,False,True,False,False,True,True,True,True,True,True,True,No,1,No,No,No,No,2020_Jul_26_1706,nibs_stage_1,3.2.3,59.99413547622079,
1,0,1,0,1,0,1,0,18,0,18,0,,,,,,,,,,,,,,,,,,,,,,,,,Listen to the question and speak out your answer!,1458.8627760410309,None,1458.8281759262086,1460.8619618415833,"Sie hat den Newsletter abonniert, um weitere Informationen zu erhalten.",abonniert,1460.2119216442109,None,1464.9458436489106,1465.9622309207916,1475.4127237319947,None,1476.829675912857,None,./data/Subject_07/Session_03/Exp_data/2020_Jul_26_1706/rec_QA_run_01_block_001_trial_018.wav,07,03,English,B1,True,False,True,False,False,True,True,True,True,True,True,True,No,1,No,No,No,No,2020_Jul_26_1706,nibs_stage_1,3.2.3,59.99413547622079,
1,0,1,0,1,0,1,0,19,0,19,0,,,,,,,,,,,,,,,,,,,,,,,,,Listen to the question and speak out your answer!,1479.8971259593964,None,1479.86261882782,1481.8963899612427,Die Gäste gratulieren dem jungen Paar herzlich zur Hochzeit.,gratulieren,1481.2797266960144,1485.0632288455963,1485.4464845180512,1486.4632740020752,1496.4805225849152,None,1497.8974058628082,None,./data/Subject_07/Session_03/Exp_data/2020_Jul_26_1706/rec_QA_run_01_block_001_trial_019.wav,07,03,English,B1,True,False,True,False,False,True,True,True,True,True,True,True,No,1,No,No,No,No,2020_Jul_26_1706,nibs_stage_1,3.2.3,59.99413547622079,
1,0,1,0,1,0,1,0,20,0,20,0,,,,,,,,,,,,,,,,,,,,,,,,,Listen to the question and speak out your answer!,1500.9308998584747,None,1500.9138766288759,1502.9308199882507,Wollen wir morgen zu Hause bleiben oder uns einen Film im Kino ansehen?,ansehen,1502.280802679062,1506.5977189540863,1507.0143846988678,1508.0310218334198,1517.4815396785737,None,1518.898444890976,None,./data/Subject_07/Session_03/Exp_data/2020_Jul_26_1706/rec_QA_run_01_block_001_trial_020.wav,07,03,English,B1,True,False,True,False,False,True,True,True,True,True,True,True,No,1,No,No,No,No,2020_Jul_26_1706,nibs_stage_1,3.2.3,59.99413547622079,
1,0,1,0,1,0,1,0,21,0,21,0,,,,,,,,,,,,,,,,,,,,,,,,,Listen to the question and speak out your answer!,1521.9658238887787,None,1521.9314958095551,1523.9654109477997,Tim sammelt Briefmarken und Münzen.,sammelt,1523.3157195568085,1525.7657668590546,1526.148829650879,None,1538.5161387443543,None,1539.9327738285065,None,./data/Subject_07/Session_03/Exp_data/2020_Jul_26_1706/rec_QA_run_01_block_001_trial_021.wav,07,03,English,B1,True,False,True,False,False,True,True,True,True,True,True,True,No,1,No,No,No,No,2020_Jul_26_1706,nibs_stage_1,3.2.3,59.99413547622079,
1,0,1,0,1,0,1,0,22,0,22,0,,,,,,,,,,,,,,,,,,,,,,,,,Listen to the question and speak out your answer!,1543.016830921173,None,1542.9827035427095,1545.0163650512695,Bald wird in den USA ein neuer Präsident gewählt.,gewählt,1544.366339635849,None,1547.8997697353363,1548.9167308807373,1559.5672835826874,1560.5838840007782,1560.9839210510254,None,./data/Subject_07/Session_03/Exp_data/2020_Jul_26_1706/rec_QA_run_01_block_001_trial_022.wav,07,03,English,B1,True,False,True,False,False,True,True,True,True,True,True,True,No,1,No,No,No,No,2020_Jul_26_1706,nibs_stage_1,3.2.3,59.99413547622079,
1,0,1,0,1,0,1,0,23,0,23,0,,,,,,,,,,,,,,,,,,,,,,,,,Listen to the question and speak out your answer!,1564.0513188838959,None,1564.0170217990876,1566.0508110523224,Der Artikel hat uns über die Ursache des Erderwärmung informiert.,informiert,1565.400794696808,1569.250988960266,1569.6676547050477,1570.684399843216,1580.6014966487885,None,1582.018343925476,None,./data/Subject_07/Session_03/Exp_data/2020_Jul_26_1706/rec_QA_run_01_block_001_trial_023.wav,07,03,English,B1,True,False,True,False,False,True,True,True,True,True,True,True,No,1,No,No,No,No,2020_Jul_26_1706,nibs_stage_1,3.2.3,59.99413547622079,
1,0,1,0,1,0,1,0,24,0,24,0,,,,,,,,,,,,,,,,,,,,,,,,,Listen to the question and speak out your answer!,1585.1191108226776,None,1585.0849171161651,1587.1185958385468,Sie hat das Gemüse in Olivenöl gebraten.,gebraten,1586.5018715381623,1589.285367012024,1589.6688177108765,None,1601.7026886463166,None,1603.1194069385529,None,./data/Subject_07/Session_03/Exp_data/2020_Jul_26_1706/rec_QA_run_01_block_001_trial_024.wav,07,03,English,B1,True,False,True,False,False,True,True,True,True,True,True,True,No,1,No,No,No,No,2020_Jul_26_1706,nibs_stage_1,3.2.3,59.99413547622079,
