run.thisRepN,run.thisTrialN,run.thisN,run.thisIndex,artifact_trial.thisRepN,artifact_trial.thisTrialN,artifact_trial.thisN,artifact_trial.thisIndex,QA_block.thisRepN,QA_block.thisTrialN,QA_block.thisN,QA_block.thisIndex,QA_trial.thisRepN,QA_trial.thisTrialN,QA_trial.thisN,QA_trial.thisIndex,fade_in_text.text,fade_in_text.started,fade_in_text.stopped,Artifact_intro_title.started,Artifact_intro_title.stopped,Artifact_intro_text.text,Artifact_intro_text.started,Artifact_intro_text.stopped,Artifact_intro_audio.started,Artifact_intro_audio.stopped,Artifact_intro_cont.started,Artifact_intro_cont.stopped,Artifact_rec_text.text,Artifact_rec_text.started,Artifact_rec_text.stopped,Artifact_rec_beep_hint.started,Artifact_rec_beep_hint.stopped,Artifact_rec_action.started,Artifact_rec_action.stopped,Artifact_rec_beep_start.started,Artifact_rec_beep_start.stopped,Artifact_rec_recording.started,Artifact_rec_recording.stopped,Artifact_rec_beep_end.started,Artifact_rec_beep_end.stopped,Artifact_rec_break.started,Artifact_rec_break.stopped,RS_intro_title.started,RS_intro_title.stopped,RS_intro_text.text,RS_intro_text.started,RS_intro_text.stopped,RS_intro_audio.started,RS_intro_audio.stopped,RS_rec_text.text,RS_rec_text.started,RS_rec_text.stopped,Pause_cont.started,Pause_cont.stopped,QA_intro_title.started,QA_intro_title.stopped,QA_intro_text.text,QA_intro_text.started,QA_intro_text.stopped,QA_intro_audio.started,QA_intro_audio.stopped,QA_intro_cont.started,QA_intro_cont.stopped,QA_rec_text.text,QA_rec_text.started,QA_rec_text.stopped,QA_rec_beep_hint.started,QA_rec_beep_hint.stopped,QA_rec_question.sen_text,QA_rec_question.cen_text,QA_rec_question.started,QA_rec_question.stopped,QA_rec_beep_start.started,QA_rec_beep_start.stopped,QA_rec_beep_end.started,QA_rec_beep_end.stopped,QA_rec_break.started,QA_rec_break.stopped,filename,fade_out_text.text,fade_out_text.started,fade_out_text.stopped,participant,session,First language,German level,Full_screen,Instruction,Intro,Artifact,Cali_pre,Fade_in_out,Artifact_within,Resting_State,QA,Pause,Cali_post,End,Breakpoint_Cali_pre_trial,Breakpoint_Run,Breakpoint_RS_block,Breakpoint_QA_block,Breakpoint_QA_trial,Breakpoint_Cali_post_trial,date,expName,psychopyVersion,frameRate,
2,0,2,0,0,0,0,0,,,,,,,,,Please remain seated until further instruction via the earphone.,58.1973237991333,None,60.23058080673218,None,"  - Task: Artifacts collection   
  - Please follow audio instruction              
",60.23058080673218,None,60.21410393714905,None,86.61504197120667,None,,88.64850378036499,None,88.64848971366882,90.6488709449768,90.03217148780823,None,93.43231844902039,94.43237495422363,94.83239150047302,104.83284878730774,105.23318243026733,None,106.63302278518677,107.63304591178894,,,,,,,,,,,,,,,,,,,,,,,,,,,,,,,,,,,,,,,,,07,03,English,B1,True,False,True,False,False,True,True,True,True,True,True,True,No,2,No,No,No,No,2020_Jul_26_1748,nibs_stage_1,3.2.3,59.987271148843185,
2,0,2,0,1,0,1,0,,,,,,,,,,,,,,,,,,,,,,110.666583776474,None,110.6498191356659,112.64998984336853,112.03328347206116,None,115.43349242210388,116.4336998462677,116.83374238014221,126.83412098884583,127.23413038253784,None,128.6341109275818,129.6342248916626,,,,,,,,,,,,,,,,,,,,,,,,,,,,,,,,,,,,,,,,,07,03,English,B1,True,False,True,False,False,True,True,True,True,True,True,True,No,2,No,No,No,No,2020_Jul_26_1748,nibs_stage_1,3.2.3,59.987271148843185,
2,0,2,0,2,0,2,0,,,,,,,,,,,,,,,,,,,,,,132.68466091156006,None,132.66773104667664,134.66811990737915,134.05125641822815,None,137.45128655433655,None,138.85137057304382,148.85166478157043,149.25169444084167,None,150.6516888141632,151.65181493759155,,,,,,,,,,,,,,,,,,,,,,,,,,,,,,,,,,,,,,,,,07,03,English,B1,True,False,True,False,False,True,True,True,True,True,True,True,No,2,No,No,No,No,2020_Jul_26_1748,nibs_stage_1,3.2.3,59.987271148843185,
2,0,2,0,3,0,3,0,,,,,,,,,,,,,,,,,,,,,,154.70207381248474,None,154.6853210926056,156.6854088306427,156.06871056556702,None,159.4687955379486,160.46895384788513,160.86897253990173,170.86948895454407,171.26949739456177,None,172.66957998275757,173.66962599754333,,,,,,,,,,,,,,,,,,,,,,,,,,,,,,,,,,,,,,,,,07,03,English,B1,True,False,True,False,False,True,True,True,True,True,True,True,No,2,No,No,No,No,2020_Jul_26_1748,nibs_stage_1,3.2.3,59.987271148843185,
2,0,2,0,4,0,4,0,,,,,,,,,,,,,,,,,,,,,,176.7205867767334,None,176.7030599117279,178.70316982269287,178.08654642105103,None,181.48672151565552,182.48678278923035,182.8867974281311,192.8873209953308,193.2873454093933,None,194.68738389015198,195.68746900558472,,,,,,,,,,,,,,,,,,,,,,,,,,,,,,,,,,,,,,,,,07,03,English,B1,True,False,True,False,False,True,True,True,True,True,True,True,No,2,No,No,No,No,2020_Jul_26_1748,nibs_stage_1,3.2.3,59.987271148843185,
2,0,2,0,5,0,5,0,,,,,,,,,,,,,,,,,,,,,,198.73834586143494,None,198.72096014022827,200.7216169834137,200.10437655448914,None,203.50453853607178,None,204.9046015739441,214.90514183044434,215.30515551567078,None,216.70523285865784,217.70520186424255,,,,,,,,,,,,,,,,,,,,,,,,,,,,,,,,,,,,,,,,,07,03,English,B1,True,False,True,False,False,True,True,True,True,True,True,True,No,2,No,No,No,No,2020_Jul_26_1748,nibs_stage_1,3.2.3,59.987271148843185,
2,0,2,0,6,0,6,0,,,,,,,,,,,,,,,,,,,,,,220.75633478164673,None,220.73879599571228,222.73888397216797,222.12212443351746,None,225.52233743667603,None,226.92243146896362,236.92318487167358,237.32318758964539,None,238.72321796417236,239.7233018875122,,,,,,,,,,,,,,,,,,,,,,,,,,,,,,,,,,,,,,,,,07,03,English,B1,True,False,True,False,False,True,True,True,True,True,True,True,No,2,No,No,No,No,2020_Jul_26_1748,nibs_stage_1,3.2.3,59.987271148843185,
2,0,2,0,7,0,7,0,,,,,,,,,,,,,,,,,,,,,,242.7734968662262,None,242.7570400238037,244.7571280002594,244.140207529068,247.1404209136963,247.54039549827576,None,248.94049549102783,258.94098377227783,259.3410384654999,None,260.7410809993744,261.7410478591919,,,,,,,,,,,,,,,,,,,,,,,,,,,,,,,,,,,,,,,,,07,03,English,B1,True,False,True,False,False,True,True,True,True,True,True,True,No,2,No,No,No,No,2020_Jul_26_1748,nibs_stage_1,3.2.3,59.987271148843185,
2,0,2,0,8,0,8,0,,,,,,,,,,,,,,,,,,,,,,264.791298866272,None,264.7746660709381,266.77476382255554,266.15802550315857,269.1584107875824,269.55843448638916,None,270.95831537246704,280.9587450027466,281.3588263988495,None,282.7589318752289,283.7589888572693,,,,,,,,,,,,,,,,,,,,,,,,,,,,,,,,,,,,,,,,,07,03,English,B1,True,False,True,False,False,True,True,True,True,True,True,True,No,2,No,No,No,No,2020_Jul_26_1748,nibs_stage_1,3.2.3,59.987271148843185,
2,0,2,0,9,0,9,0,,,,,,,,,,,,,,,,,,,,,,286.8093328475952,None,286.7924780845642,288.79256892204285,288.1758813858032,291.17608880996704,291.5762674808502,None,292.97606658935547,302.97703790664673,303.37668442726135,None,304.7768888473511,305.7767789363861,,,,,,,,,,,,,,,,,,,,,,,,,,,,,,,,,,,,,,,,,07,03,English,B1,True,False,True,False,False,True,True,True,True,True,True,True,No,2,No,No,No,No,2020_Jul_26_1748,nibs_stage_1,3.2.3,59.987271148843185,
2,0,2,0,10,0,10,0,,,,,,,,,,,,,,,,,,,,,,308.82691979408264,None,308.8102910518646,310.8103849887848,310.1936585903168,None,313.59378838539124,None,314.9939343929291,324.99455189704895,325.3945324420929,None,326.7947108745575,327.7945308685303,,,,,,,,,,,,,,,,,,,,,,,,,,,,,,,,,,,,,,,,,07,03,English,B1,True,False,True,False,False,True,True,True,True,True,True,True,No,2,No,No,No,No,2020_Jul_26_1748,nibs_stage_1,3.2.3,59.987271148843185,
2,0,2,0,11,0,11,0,,,,,,,,,,,,,,,,,,,,,,330.84542179107666,None,330.82812094688416,332.82821679115295,332.2116665840149,None,335.6117753982544,None,337.0126304626465,347.0123019218445,347.41222739219666,None,348.8123970031738,349.81243681907654,,,,,,,,,,,,,,,,,,,,,,,,,,,,,,,,,,,,,,,,,07,03,English,B1,True,False,True,False,False,True,True,True,True,True,True,True,No,2,No,No,No,No,2020_Jul_26_1748,nibs_stage_1,3.2.3,59.987271148843185,
2,0,2,0,12,0,12,0,,,,,,,,,,,,,,,,,,,,,,352.862557888031,None,352.8466000556946,354.84605884552,354.2293643951416,357.22956681251526,357.62957644462585,None,359.0298435688019,369.03011679649353,369.4301595687866,None,370.83052492141724,371.8302688598633,,,,,,,,,,,,,,,,,,,,,,,,,,,,,,,,,,,,,,,,,07,03,English,B1,True,False,True,False,False,True,True,True,True,True,True,True,No,2,No,No,No,No,2020_Jul_26_1748,nibs_stage_1,3.2.3,59.987271148843185,
2,0,2,0,13,0,13,0,,,,,,,,,,,,,,,,,,,,,,374.8804609775543,None,374.8637590408325,376.8640649318695,376.2471604347229,None,379.64732551574707,None,381.04745745658875,391.0479497909546,391.44812059402466,None,392.84803795814514,393.8481149673462,,,,,,,,,,,,,,,,,,,,,,,,,,,,,,,,,,,,,,,,,07,03,English,B1,True,False,True,False,False,True,True,True,True,True,True,True,No,2,No,No,No,No,2020_Jul_26_1748,nibs_stage_1,3.2.3,59.987271148843185,
2,0,2,0,14,0,14,0,,,,,,,,,,,,,,,,,,,,,,396.8983190059662,None,396.88169503211975,398.8816819190979,398.26489758491516,None,401.66547441482544,None,403.0654215812683,413.0656998157501,413.4661076068878,None,414.86589193344116,415.86590695381165,,,,,,,,,,,,,,,,,,,,,,,,,,,,,,,,,,,,,,,,,07,03,English,B1,True,False,True,False,False,True,True,True,True,True,True,True,No,2,No,No,No,No,2020_Jul_26_1748,nibs_stage_1,3.2.3,59.987271148843185,
2,0,2,0,,,,,0,0,0,0,0,0,0,0,,,,,,,,,,,,,,,,,,,,,,,,,,,,626.3773348331451,None," - Task: Keep seated and relaxed with either      
             opening or closing eyes                  
 - Beep sound with decreasing pitch: Block finish 
",626.3773348331451,None,626.3433945178986,None,"Please keep relaxed and close your eyes.
",649.4452328681946,829.4873979091644,832.8543269634247,None,847.1719439029694,None," - Task: Listen to the question& Speak out answer 
 - Melodious beep sound: Trial start              
 - Silent sound (blank): censored word            
 - Beep sound with increasing pitch: Rec. start   
 - Beep sound with decreasing pitch: Rec. finish  
",847.1719439029694,None,847.1551072597504,None,886.5904109477997,None,Listen to the question and speak out your answer!,889.673868894577,None,889.6405825614929,891.6739768981934,Bei der Ausreise wird der Pass kontrolliert.,kontrolliert,891.0572884082794,893.6078269481659,893.9574675559998,894.9742918014526,906.2582335472107,907.274817943573,907.6748309135437,None,./data/Subject_07/Session_03/Exp_data/2020_Jul_26_1748/rec_QA_run_02_block_000_trial_000.wav,,,,07,03,English,B1,True,False,True,False,False,True,True,True,True,True,True,True,No,2,No,No,No,No,2020_Jul_26_1748,nibs_stage_1,3.2.3,59.987271148843185,
2,0,2,0,,,,,0,0,0,0,1,0,1,0,,,,,,,,,,,,,,,,,,,,,,,,,,,,,,,,,,,,,,,,,,,,,,,,,Listen to the question and speak out your answer!,910.7085909843445,None,910.6916651725769,912.7086157798767,Er hat meine Sympathie gewonnen.,gewonnen,912.0917344093323,913.9752578735352,914.3585023880005,None,927.2925274372101,None,928.70955991745,None,./data/Subject_07/Session_03/Exp_data/2020_Jul_26_1748/rec_QA_run_02_block_000_trial_001.wav,,,,07,03,English,B1,True,False,True,False,False,True,True,True,True,True,True,True,No,2,No,No,No,No,2020_Jul_26_1748,nibs_stage_1,3.2.3,59.987271148843185,
2,0,2,0,,,,,0,0,0,0,2,0,2,0,,,,,,,,,,,,,,,,,,,,,,,,,,,,,,,,,,,,,,,,,,,,,,,,,Listen to the question and speak out your answer!,931.7934019565582,None,931.7594523429871,933.7929089069366,Wir haben auf der Konferenz einige grundlegende Fragen zum Klimaschutz diskutiert.,diskutiert,933.1428353786469,938.2265508174896,938.6099073886871,939.6265158653259,948.3602895736694,None,949.7770409584045,None,./data/Subject_07/Session_03/Exp_data/2020_Jul_26_1748/rec_QA_run_02_block_000_trial_002.wav,,,,07,03,English,B1,True,False,True,False,False,True,True,True,True,True,True,True,No,2,No,No,No,No,2020_Jul_26_1748,nibs_stage_1,3.2.3,59.987271148843185,
2,0,2,0,,,,,0,0,0,0,3,0,3,0,,,,,,,,,,,,,,,,,,,,,,,,,,,,,,,,,,,,,,,,,,,,,,,,,Listen to the question and speak out your answer!,952.8444929122925,None,952.8105325698853,954.8439779281616,Wir leben in dem universalen Weltall.,leben,954.2272953987122,956.7773067951202,957.127438545227,None,969.4280633926392,None,970.8447799682617,None,./data/Subject_07/Session_03/Exp_data/2020_Jul_26_1748/rec_QA_run_02_block_000_trial_003.wav,,,,07,03,English,B1,True,False,True,False,False,True,True,True,True,True,True,True,No,2,No,No,No,No,2020_Jul_26_1748,nibs_stage_1,3.2.3,59.987271148843185,
2,0,2,0,,,,,0,0,0,0,4,0,4,0,,,,,,,,,,,,,,,,,,,,,,,,,,,,,,,,,,,,,,,,,,,,,,,,,Listen to the question and speak out your answer!,973.8799297809601,None,973.8616433143616,975.8784379959106,Die friedlichen Pandas kommen aus China.,kommen,975.2617003917694,977.7785007953644,978.1618685722351,None,990.4625065326691,991.4792377948761,991.8792479038239,None,./data/Subject_07/Session_03/Exp_data/2020_Jul_26_1748/rec_QA_run_02_block_000_trial_004.wav,,,,07,03,English,B1,True,False,True,False,False,True,True,True,True,True,True,True,No,2,No,No,No,No,2020_Jul_26_1748,nibs_stage_1,3.2.3,59.987271148843185,
2,0,2,0,,,,,0,0,0,0,5,0,5,0,,,,,,,,,,,,,,,,,,,,,,,,,,,,,,,,,,,,,,,,,,,,,,,,,Listen to the question and speak out your answer!,994.9469549655914,None,994.9294011592865,996.9461719989777,"Doris ist leider zu spät gekommen, die Apotheke hat heute schon geschlossen.",geschlossen,996.3294694423676,None,1001.3963305950165,1002.4131188392639,1011.5302906036377,None,1012.9470829963684,None,./data/Subject_07/Session_03/Exp_data/2020_Jul_26_1748/rec_QA_run_02_block_000_trial_005.wav,,,,07,03,English,B1,True,False,True,False,False,True,True,True,True,True,True,True,No,2,No,No,No,No,2020_Jul_26_1748,nibs_stage_1,3.2.3,59.987271148843185,
2,0,2,0,,,,,0,0,0,0,6,0,6,0,,,,,,,,,,,,,,,,,,,,,,,,,,,,,,,,,,,,,,,,,,,,,,,,,Listen to the question and speak out your answer!,1016.0153439044952,None,1015.9971871376038,1018.0139379501343,Briefe und Pakete verschickt man mit der Post.,verschickt,1017.3973186016083,None,1020.7307643890381,None,1032.5980415344238,None,1034.0149309635162,None,./data/Subject_07/Session_03/Exp_data/2020_Jul_26_1748/rec_QA_run_02_block_000_trial_006.wav,,,,07,03,English,B1,True,False,True,False,False,True,True,True,True,True,True,True,No,2,No,No,No,No,2020_Jul_26_1748,nibs_stage_1,3.2.3,59.987271148843185,
2,0,2,0,,,,,0,0,0,0,7,0,7,0,,,,,,,,,,,,,,,,,,,,,,,,,,,,,,,,,,,,,,,,,,,,,,,,,Listen to the question and speak out your answer!,1037.0822699069977,None,1037.0482926368713,1039.081717967987,Der Mörder wollte die Gründe für seine Tat nicht nennen.,nennen,1038.4650175571442,1041.481833934784,1041.8652114868164,1042.8819217681885,1053.6658194065094,None,1055.0827209949493,None,./data/Subject_07/Session_03/Exp_data/2020_Jul_26_1748/rec_QA_run_02_block_000_trial_007.wav,,,,07,03,English,B1,True,False,True,False,False,True,True,True,True,True,True,True,No,2,No,No,No,No,2020_Jul_26_1748,nibs_stage_1,3.2.3,59.987271148843185,
2,0,2,0,,,,,0,0,0,0,8,0,8,0,,,,,,,,,,,,,,,,,,,,,,,,,,,,,,,,,,,,,,,,,,,,,,,,,Listen to the question and speak out your answer!,1058.1164247989655,None,1058.0995762348175,1060.116154909134,Der Vogel flog zurück zu seinem Nest.,flog,1059.466106414795,None,1062.3328444957733,1063.3496417999268,1074.6669664382935,None,1076.08363199234,None,./data/Subject_07/Session_03/Exp_data/2020_Jul_26_1748/rec_QA_run_02_block_000_trial_008.wav,,,,07,03,English,B1,True,False,True,False,False,True,True,True,True,True,True,True,No,2,No,No,No,No,2020_Jul_26_1748,nibs_stage_1,3.2.3,59.987271148843185,
2,0,2,0,,,,,0,0,0,0,9,0,9,0,,,,,,,,,,,,,,,,,,,,,,,,,,,,,,,,,,,,,,,,,,,,,,,,,Listen to the question and speak out your answer!,1079.1506509780884,None,1079.1171627044678,1081.150587797165,Das Lagerfeuer hat zwei Stunden lang gebrannt.,gebrannt,1080.5339374542236,1083.3175168037415,1083.7007145881653,None,1095.7348515987396,None,1097.1514430046082,None,./data/Subject_07/Session_03/Exp_data/2020_Jul_26_1748/rec_QA_run_02_block_000_trial_009.wav,,,,07,03,English,B1,True,False,True,False,False,True,True,True,True,True,True,True,No,2,No,No,No,No,2020_Jul_26_1748,nibs_stage_1,3.2.3,59.987271148843185,
2,0,2,0,,,,,0,0,0,0,10,0,10,0,,,,,,,,,,,,,,,,,,,,,,,,,,,,,,,,,,,,,,,,,,,,,,,,,Listen to the question and speak out your answer!,1100.2021839618683,None,1100.1684403419495,1102.2016999721527,"Die USA gewannen den Zweiten Weltkrieg, nachdem sie mehrere Jahre lang gekämpft hatten.",gewannen,1101.5850484371185,1107.0352528095245,1107.385314464569,1108.4020218849182,1116.7857654094696,1117.8024928569794,1118.2025589942932,None,./data/Subject_07/Session_03/Exp_data/2020_Jul_26_1748/rec_QA_run_02_block_000_trial_010.wav,,,,07,03,English,B1,True,False,True,False,False,True,True,True,True,True,True,True,No,2,No,No,No,No,2020_Jul_26_1748,nibs_stage_1,3.2.3,59.987271148843185,
2,0,2,0,,,,,0,0,0,0,11,0,11,0,,,,,,,,,,,,,,,,,,,,,,,,,,,,,,,,,,,,,,,,,,,,,,,,,Listen to the question and speak out your answer!,1121.2202467918396,None,1121.2026896476746,1123.2195677757263,Singapore liegt in Südostasien.,liegt,1122.6027345657349,None,1125.4362425804138,None,1137.7868463993073,None,1139.2036168575287,None,./data/Subject_07/Session_03/Exp_data/2020_Jul_26_1748/rec_QA_run_02_block_000_trial_011.wav,,,,07,03,English,B1,True,False,True,False,False,True,True,True,True,True,True,True,No,2,No,No,No,No,2020_Jul_26_1748,nibs_stage_1,3.2.3,59.987271148843185,
2,0,2,0,,,,,0,0,0,0,12,0,12,0,,,,,,,,,,,,,,,,,,,,,,,,,,,,,,,,,,,,,,,,,,,,,,,,,Listen to the question and speak out your answer!,1142.2706859111786,None,1142.2371916770935,1144.2705647945404,"Er wird seinem Traum folgen, egal was die Leute reden.",reden,1143.653995513916,1147.1042919158936,1147.4540495872498,None,1158.8546783924103,None,1160.271369934082,None,./data/Subject_07/Session_03/Exp_data/2020_Jul_26_1748/rec_QA_run_02_block_000_trial_012.wav,,,,07,03,English,B1,True,False,True,False,False,True,True,True,True,True,True,True,No,2,No,No,No,No,2020_Jul_26_1748,nibs_stage_1,3.2.3,59.987271148843185,
2,0,2,0,,,,,0,0,0,0,13,0,13,0,,,,,,,,,,,,,,,,,,,,,,,,,,,,,,,,,,,,,,,,,,,,,,,,,Listen to the question and speak out your answer!,1163.32151389122,None,1163.2887732982635,1165.321615934372,Bananen können wir in der Obstabteilung finden.,finden,1164.7049214839935,None,1168.0050945281982,None,1179.9057264328003,1180.922432899475,1181.3224759101868,None,./data/Subject_07/Session_03/Exp_data/2020_Jul_26_1748/rec_QA_run_02_block_000_trial_013.wav,,,,07,03,English,B1,True,False,True,False,False,True,True,True,True,True,True,True,No,2,No,No,No,No,2020_Jul_26_1748,nibs_stage_1,3.2.3,59.987271148843185,
2,0,2,0,,,,,0,0,0,0,14,0,14,0,,,,,,,,,,,,,,,,,,,,,,,,,,,,,,,,,,,,,,,,,,,,,,,,,Listen to the question and speak out your answer!,1184.3568279743195,None,1184.3393061161041,1186.3560519218445,"Ich empfehle dieses Buch, weil es sehr gut ist.",empfehle,1185.7393584251404,1188.6895968914032,1189.0731453895569,None,1200.9400794506073,None,1202.3569078445435,None,./data/Subject_07/Session_03/Exp_data/2020_Jul_26_1748/rec_QA_run_02_block_000_trial_014.wav,,,,07,03,English,B1,True,False,True,False,False,True,True,True,True,True,True,True,No,2,No,No,No,No,2020_Jul_26_1748,nibs_stage_1,3.2.3,59.987271148843185,
2,0,2,0,,,,,0,0,0,0,15,0,15,0,,,,,,,,,,,,,,,,,,,,,,,,,,,,,,,,,,,,,,,,,,,,,,,,,Listen to the question and speak out your answer!,1205.4076569080353,None,1205.3738429546356,1207.4071788787842,Junge Leute machen gerne Partys.,machen,1206.757113456726,None,1209.6239275932312,None,1221.9579195976257,None,1223.3747727870941,None,./data/Subject_07/Session_03/Exp_data/2020_Jul_26_1748/rec_QA_run_02_block_000_trial_015.wav,,,,07,03,English,B1,True,False,True,False,False,True,True,True,True,True,True,True,No,2,No,No,No,No,2020_Jul_26_1748,nibs_stage_1,3.2.3,59.987271148843185,
2,0,2,0,,,,,0,0,0,0,16,0,16,0,,,,,,,,,,,,,,,,,,,,,,,,,,,,,,,,,,,,,,,,,,,,,,,,,Listen to the question and speak out your answer!,1226.4419739246368,None,1226.4081275463104,1228.441568851471,"Ich nehme nie Dinge, die anderen gehören.",gehören,1227.824856519699,None,1230.725031375885,None,1243.0256924629211,None,1244.4424149990082,None,./data/Subject_07/Session_03/Exp_data/2020_Jul_26_1748/rec_QA_run_02_block_000_trial_016.wav,,,,07,03,English,B1,True,False,True,False,False,True,True,True,True,True,True,True,No,2,No,No,No,No,2020_Jul_26_1748,nibs_stage_1,3.2.3,59.987271148843185,
2,0,2,0,,,,,0,0,0,0,17,0,17,0,,,,,,,,,,,,,,,,,,,,,,,,,,,,,,,,,,,,,,,,,,,,,,,,,Listen to the question and speak out your answer!,1247.4594459533691,None,1247.4259181022644,1249.459615945816,"Ich würde sehr froh, wenn meine Familie 5 Millionen Euro gewinnen würde.",gewinnen,1248.8093004226685,1253.4595549106598,1253.842922449112,None,1264.0101084709167,None,1265.4269568920135,None,./data/Subject_07/Session_03/Exp_data/2020_Jul_26_1748/rec_QA_run_02_block_000_trial_017.wav,,,,07,03,English,B1,True,False,True,False,False,True,True,True,True,True,True,True,No,2,No,No,No,No,2020_Jul_26_1748,nibs_stage_1,3.2.3,59.987271148843185,
2,0,2,0,,,,,0,0,0,0,18,0,18,0,,,,,,,,,,,,,,,,,,,,,,,,,,,,,,,,,,,,,,,,,,,,,,,,,Listen to the question and speak out your answer!,1268.4942388534546,None,1268.4603567123413,1270.493766784668,Aufgrund der globalen Erwärmung werden die Häuser der Inselbewohner im Meer versinken.,versinken,1269.877096414566,None,1275.2106864452362,None,1285.077877521515,None,1286.4945678710938,None,./data/Subject_07/Session_03/Exp_data/2020_Jul_26_1748/rec_QA_run_02_block_000_trial_018.wav,,,,07,03,English,B1,True,False,True,False,False,True,True,True,True,True,True,True,No,2,No,No,No,No,2020_Jul_26_1748,nibs_stage_1,3.2.3,59.987271148843185,
2,0,2,0,,,,,0,0,0,0,19,0,19,0,,,,,,,,,,,,,,,,,,,,,,,,,,,,,,,,,,,,,,,,,,,,,,,,,Listen to the question and speak out your answer!,1289.5289969444275,None,1289.4947636127472,1291.528315782547,Der Verletzte braucht dringend einen Arzt zu besuchen.,besuchen,1290.9115085601807,None,1294.411859512329,None,1306.1124794483185,1307.1291949748993,1307.529019832611,None,./data/Subject_07/Session_03/Exp_data/2020_Jul_26_1748/rec_QA_run_02_block_000_trial_019.wav,,,,07,03,English,B1,True,False,True,False,False,True,True,True,True,True,True,True,No,2,No,No,No,No,2020_Jul_26_1748,nibs_stage_1,3.2.3,59.987271148843185,
2,0,2,0,,,,,0,0,0,0,20,0,20,0,,,,,,,,,,,,,,,,,,,,,,,,,,,,,,,,,,,,,,,,,,,,,,,,,Listen to the question and speak out your answer!,1310.5464007854462,None,1310.5126321315765,1312.5459628105164,"Leichte Sprache ist eine Hilfe für Menschen , die keine schwierige Sprache verstehen.",verstehen,1311.9292604923248,None,1317.329535484314,None,1327.129974603653,None,1328.5468249320984,None,./data/Subject_07/Session_03/Exp_data/2020_Jul_26_1748/rec_QA_run_02_block_000_trial_020.wav,,,,07,03,English,B1,True,False,True,False,False,True,True,True,True,True,True,True,No,2,No,No,No,No,2020_Jul_26_1748,nibs_stage_1,3.2.3,59.987271148843185,
2,0,2,0,,,,,0,0,0,0,21,0,21,0,,,,,,,,,,,,,,,,,,,,,,,,,,,,,,,,,,,,,,,,,,,,,,,,,Listen to the question and speak out your answer!,1331.5811958312988,None,1331.5636103153229,1333.5803809165955,"Um die Prüfung zu bestehen, hat er viel gelernt.",gelernt,1332.9636845588684,None,1336.297212600708,None,1348.1644914150238,None,1349.5812089443207,None,./data/Subject_07/Session_03/Exp_data/2020_Jul_26_1748/rec_QA_run_02_block_000_trial_021.wav,,,,07,03,English,B1,True,False,True,False,False,True,True,True,True,True,True,True,No,2,No,No,No,No,2020_Jul_26_1748,nibs_stage_1,3.2.3,59.987271148843185,
2,0,2,0,,,,,0,0,0,0,22,0,22,0,,,,,,,,,,,,,,,,,,,,,,,,,,,,,,,,,,,,,,,,,,,,,,,,,Listen to the question and speak out your answer!,1352.6150438785553,None,1352.5981132984161,1354.6148209571838,Ein Arzt behandelt kranke Leute in einer Praxis oder im Krankenhaus.,behandelt,1353.9981145858765,None,1358.7983684539795,None,1369.1989345550537,None,1370.6155738830566,None,./data/Subject_07/Session_03/Exp_data/2020_Jul_26_1748/rec_QA_run_02_block_000_trial_022.wav,,,,07,03,English,B1,True,False,True,False,False,True,True,True,True,True,True,True,No,2,No,No,No,No,2020_Jul_26_1748,nibs_stage_1,3.2.3,59.987271148843185,
2,0,2,0,,,,,0,0,0,0,23,0,23,0,,,,,,,,,,,,,,,,,,,,,,,,,,,,,,,,,,,,,,,,,,,,,,,,,Listen to the question and speak out your answer!,1373.634123802185,None,1373.615730524063,1375.6325628757477,Die Milch riecht verdorben.,riecht,1375.015787601471,1376.6659648418427,1377.0159785747528,None,1390.216602563858,None,1391.6334249973297,None,./data/Subject_07/Session_03/Exp_data/2020_Jul_26_1748/rec_QA_run_02_block_000_trial_023.wav,,,,07,03,English,B1,True,False,True,False,False,True,True,True,True,True,True,True,No,2,No,No,No,No,2020_Jul_26_1748,nibs_stage_1,3.2.3,59.987271148843185,
2,0,2,0,,,,,0,0,0,0,24,0,24,0,,,,,,,,,,,,,,,,,,,,,,,,,,,,,,,,,,,,,,,,,,,,,,,,,Listen to the question and speak out your answer!,1394.700217962265,None,1394.6668317317963,1396.7003328800201,Ich habe gestern einen interessanten Mann kennen gelernt.,kennen,1396.0836493968964,1399.43381690979,1399.8171753883362,None,1411.284395456314,None,1412.7011618614197,None,./data/Subject_07/Session_03/Exp_data/2020_Jul_26_1748/rec_QA_run_02_block_000_trial_024.wav,,,,07,03,English,B1,True,False,True,False,False,True,True,True,True,True,True,True,No,2,No,No,No,No,2020_Jul_26_1748,nibs_stage_1,3.2.3,59.987271148843185,
2,0,2,0,,,,,0,0,0,0,,,,,,,,,,,,,,,,,,,,,,,,,,,,,,,,,,,,,,,,,,1416.7180528640747,None,,,,,,,,,,,,,,,,,,,,,,,,,,,,,07,03,English,B1,True,False,True,False,False,True,True,True,True,True,True,True,No,2,No,No,No,No,2020_Jul_26_1748,nibs_stage_1,3.2.3,59.987271148843185,
2,0,2,0,,,,,1,0,1,0,0,0,0,0,,,,,,,,,,,,,,,,,,,,,,,,,,,,,,,,,,,,,,,,,,,,,,,,,Listen to the question and speak out your answer!,1431.4039738178253,None,1431.3856070041656,1433.4022738933563,"Bevor es Autos gab, sind die Leute mit der Eisenbahn gefahren.",gefahren,1432.7855384349823,None,1437.0191013813019,None,1447.9863505363464,None,1449.4030969142914,None,./data/Subject_07/Session_03/Exp_data/2020_Jul_26_1748/rec_QA_run_02_block_001_trial_000.wav,,,,07,03,English,B1,True,False,True,False,False,True,True,True,True,True,True,True,No,2,No,No,No,No,2020_Jul_26_1748,nibs_stage_1,3.2.3,59.987271148843185,
2,0,2,0,,,,,1,0,1,0,1,0,1,0,,,,,,,,,,,,,,,,,,,,,,,,,,,,,,,,,,,,,,,,,,,,,,,,,Listen to the question and speak out your answer!,1452.4714608192444,None,1452.4532561302185,1454.4700138568878,"Ich werde mich nicht entschuldigen, schließlich habe ich den Streit nicht angefangen.",entschuldigen,1453.8533565998077,None,1458.6869266033173,1459.703619003296,1469.0543155670166,None,1470.4708559513092,None,./data/Subject_07/Session_03/Exp_data/2020_Jul_26_1748/rec_QA_run_02_block_001_trial_001.wav,,,,07,03,English,B1,True,False,True,False,False,True,True,True,True,True,True,True,No,2,No,No,No,No,2020_Jul_26_1748,nibs_stage_1,3.2.3,59.987271148843185,
2,0,2,0,,,,,1,0,1,0,2,0,2,0,,,,,,,,,,,,,,,,,,,,,,,,,,,,,,,,,,,,,,,,,,,,,,,,,Listen to the question and speak out your answer!,1473.5044269561768,None,1473.4709966182709,1475.504427909851,Wir haben während des Urlaubs ein gemütliches Zimmer in Meeresnähe gemietet.,gemietet,1474.8877425193787,None,1479.7880284786224,None,1490.0884974002838,1491.1053819656372,1491.505274772644,None,./data/Subject_07/Session_03/Exp_data/2020_Jul_26_1748/rec_QA_run_02_block_001_trial_002.wav,,,,07,03,English,B1,True,False,True,False,False,True,True,True,True,True,True,True,No,2,No,No,No,No,2020_Jul_26_1748,nibs_stage_1,3.2.3,59.987271148843185,
2,0,2,0,,,,,1,0,1,0,3,0,3,0,,,,,,,,,,,,,,,,,,,,,,,,,,,,,,,,,,,,,,,,,,,,,,,,,Listen to the question and speak out your answer!,1494.540395975113,None,1494.5221681594849,1496.5388798713684,Auf Lavaerde wachsen sehr gute Weintrauben.,wachsen,1495.9222865104675,None,1499.455694437027,None,1511.1229674816132,None,1512.5397219657898,None,./data/Subject_07/Session_03/Exp_data/2020_Jul_26_1748/rec_QA_run_02_block_001_trial_003.wav,,,,07,03,English,B1,True,False,True,False,False,True,True,True,True,True,True,True,No,2,No,No,No,No,2020_Jul_26_1748,nibs_stage_1,3.2.3,59.987271148843185,
2,0,2,0,,,,,1,0,1,0,4,0,4,0,,,,,,,,,,,,,,,,,,,,,,,,,,,,,,,,,,,,,,,,,,,,,,,,,Listen to the question and speak out your answer!,1515.6238248348236,None,1515.5898742675781,1517.6232888698578,"Sie hat Jogurt, Milch, Banana, Brot etc. im Supermarkt eingekauft.",eingekauft,1516.9736166000366,1521.9904959201813,1522.4068884849548,None,1532.174099445343,1533.1907858848572,1533.590795993805,None,./data/Subject_07/Session_03/Exp_data/2020_Jul_26_1748/rec_QA_run_02_block_001_trial_004.wav,,,,07,03,English,B1,True,False,True,False,False,True,True,True,True,True,True,True,No,2,No,No,No,No,2020_Jul_26_1748,nibs_stage_1,3.2.3,59.987271148843185,
2,0,2,0,,,,,1,0,1,0,5,0,5,0,,,,,,,,,,,,,,,,,,,,,,,,,,,,,,,,,,,,,,,,,,,,,,,,,Listen to the question and speak out your answer!,1536.6582729816437,None,1536.6242916584015,1538.658010005951,Sie hat neue Laufschuhe bekommen.,bekommen,1538.0411055088043,None,1540.4747595787048,None,1553.241812467575,None,1554.6587228775024,None,./data/Subject_07/Session_03/Exp_data/2020_Jul_26_1748/rec_QA_run_02_block_001_trial_005.wav,,,,07,03,English,B1,True,False,True,False,False,True,True,True,True,True,True,True,No,2,No,No,No,No,2020_Jul_26_1748,nibs_stage_1,3.2.3,59.987271148843185,
2,0,2,0,,,,,1,0,1,0,6,0,6,0,,,,,,,,,,,,,,,,,,,,,,,,,,,,,,,,,,,,,,,,,,,,,,,,,Listen to the question and speak out your answer!,1557.6929907798767,None,1557.6756961345673,1559.6921689510345,"Lebensmittel sind die Dinge, die man essen kann.",essen,1559.0754745006561,None,1562.342301607132,None,1574.2765855789185,None,1575.692997932434,None,./data/Subject_07/Session_03/Exp_data/2020_Jul_26_1748/rec_QA_run_02_block_001_trial_006.wav,,,,07,03,English,B1,True,False,True,False,False,True,True,True,True,True,True,True,No,2,No,No,No,No,2020_Jul_26_1748,nibs_stage_1,3.2.3,59.987271148843185,
2,0,2,0,,,,,1,0,1,0,7,0,7,0,,,,,,,,,,,,,,,,,,,,,,,,,,,,,,,,,,,,,,,,,,,,,,,,,Listen to the question and speak out your answer!,1578.7606918811798,None,1578.7434782981873,1580.760265827179,Die Sonne brennt im Sommer auf der Haut.,brennt,1580.1433293819427,1582.427013874054,1582.810334444046,None,1595.3440525531769,None,1596.7607748508453,None,./data/Subject_07/Session_03/Exp_data/2020_Jul_26_1748/rec_QA_run_02_block_001_trial_007.wav,,,,07,03,English,B1,True,False,True,False,False,True,True,True,True,True,True,True,No,2,No,No,No,No,2020_Jul_26_1748,nibs_stage_1,3.2.3,59.987271148843185,
2,0,2,0,,,,,1,0,1,0,8,0,8,0,,,,,,,,,,,,,,,,,,,,,,,,,,,,,,,,,,,,,,,,,,,,,,,,,Listen to the question and speak out your answer!,1599.8282668590546,None,1599.7942686080933,1601.8277168273926,"Schauen Sie nach draußen, der Schnee fällt.",fällt,1601.2110424041748,1603.7947578430176,1604.1777455806732,1605.194561958313,1616.4118065834045,None,1617.828665971756,None,./data/Subject_07/Session_03/Exp_data/2020_Jul_26_1748/rec_QA_run_02_block_001_trial_008.wav,,,,07,03,English,B1,True,False,True,False,False,True,True,True,True,True,True,True,No,2,No,No,No,No,2020_Jul_26_1748,nibs_stage_1,3.2.3,59.987271148843185,
2,0,2,0,,,,,1,0,1,0,9,0,9,0,,,,,,,,,,,,,,,,,,,,,,,,,,,,,,,,,,,,,,,,,,,,,,,,,Listen to the question and speak out your answer!,1620.8626508712769,None,1620.8286986351013,1622.8621308803558,"Dem Patienten geht es viel besser, so dass der Arzt ihm das Rauchen erlaubte.",erlaubte,1622.245444536209,None,1627.1791393756866,None,1637.4462294578552,None,1638.8629930019379,None,./data/Subject_07/Session_03/Exp_data/2020_Jul_26_1748/rec_QA_run_02_block_001_trial_009.wav,,,,07,03,English,B1,True,False,True,False,False,True,True,True,True,True,True,True,No,2,No,No,No,No,2020_Jul_26_1748,nibs_stage_1,3.2.3,59.987271148843185,
2,0,2,0,,,,,1,0,1,0,10,0,10,0,,,,,,,,,,,,,,,,,,,,,,,,,,,,,,,,,,,,,,,,,,,,,,,,,Listen to the question and speak out your answer!,1641.9137468338013,None,1641.879788160324,1643.913234949112,"Er kann zwanzig Zigarattes pro Tag rauchen, was sehr ungesund ist.",rauchen,1643.2632145881653,None,1647.8968505859375,None,1658.4639775753021,None,1659.8807208538055,None,./data/Subject_07/Session_03/Exp_data/2020_Jul_26_1748/rec_QA_run_02_block_001_trial_010.wav,,,,07,03,English,B1,True,False,True,False,False,True,True,True,True,True,True,True,No,2,No,No,No,No,2020_Jul_26_1748,nibs_stage_1,3.2.3,59.987271148843185,
2,0,2,0,,,,,1,0,1,0,11,0,11,0,,,,,,,,,,,,,,,,,,,,,,,,,,,,,,,,,,,,,,,,,,,,,,,,,Listen to the question and speak out your answer!,1662.9480998516083,None,1662.914148569107,1664.9480447769165,Mama hat einen Kuchen gebacken.,gebacken,1664.3309545516968,1666.3145020008087,1666.6977643966675,1667.7143909931183,1679.5317664146423,None,1680.9485409259796,None,./data/Subject_07/Session_03/Exp_data/2020_Jul_26_1748/rec_QA_run_02_block_001_trial_011.wav,,,,07,03,English,B1,True,False,True,False,False,True,True,True,True,True,True,True,No,2,No,No,No,No,2020_Jul_26_1748,nibs_stage_1,3.2.3,59.987271148843185,
2,0,2,0,,,,,1,0,1,0,12,0,12,0,,,,,,,,,,,,,,,,,,,,,,,,,,,,,,,,,,,,,,,,,,,,,,,,,Listen to the question and speak out your answer!,1683.9821379184723,None,1683.948731660843,1685.982225894928,"Wir werden später bestellen, denn es fehlen noch einige Gäste.",fehlen,1685.3320434093475,1689.148931980133,1689.5322875976562,None,1700.5328605175018,None,1701.9496088027954,None,./data/Subject_07/Session_03/Exp_data/2020_Jul_26_1748/rec_QA_run_02_block_001_trial_012.wav,,,,07,03,English,B1,True,False,True,False,False,True,True,True,True,True,True,True,No,2,No,No,No,No,2020_Jul_26_1748,nibs_stage_1,3.2.3,59.987271148843185,
2,0,2,0,,,,,1,0,1,0,13,0,13,0,,,,,,,,,,,,,,,,,,,,,,,,,,,,,,,,,,,,,,,,,,,,,,,,,Listen to the question and speak out your answer!,1705.0179378986359,None,1704.9997572898865,1707.0165259838104,Blut fließt aus einer Wunde.,fließt,1706.3998305797577,1708.249832868576,1708.5999314785004,None,1721.6007525920868,1722.617369890213,1723.0173687934875,None,./data/Subject_07/Session_03/Exp_data/2020_Jul_26_1748/rec_QA_run_02_block_001_trial_013.wav,,,,07,03,English,B1,True,False,True,False,False,True,True,True,True,True,True,True,No,2,No,No,No,No,2020_Jul_26_1748,nibs_stage_1,3.2.3,59.987271148843185,
2,0,2,0,,,,,1,0,1,0,14,0,14,0,,,,,,,,,,,,,,,,,,,,,,,,,,,,,,,,,,,,,,,,,,,,,,,,,Listen to the question and speak out your answer!,1726.085114955902,None,1726.0508637428284,1728.0843329429626,"Die Suppe wird nicht so heiß gegessen, wie sie gekocht wird.",gegessen,1727.4676384925842,None,1731.2011234760284,None,1742.6683235168457,1743.6850979328156,1744.0851368904114,None,./data/Subject_07/Session_03/Exp_data/2020_Jul_26_1748/rec_QA_run_02_block_001_trial_014.wav,,,,07,03,English,B1,True,False,True,False,False,True,True,True,True,True,True,True,No,2,No,No,No,No,2020_Jul_26_1748,nibs_stage_1,3.2.3,59.987271148843185,
2,0,2,0,,,,,1,0,1,0,15,0,15,0,,,,,,,,,,,,,,,,,,,,,,,,,,,,,,,,,,,,,,,,,,,,,,,,,Listen to the question and speak out your answer!,1747.1526019573212,None,1747.1186258792877,1749.1527359485626,Dank genügend Sonnenschein und Wasser können im Amazonaswald riesige Bäume wachsen.,wachsen,1748.5020275115967,None,1754.0023095607758,None,1763.7028024196625,None,1765.1195888519287,None,./data/Subject_07/Session_03/Exp_data/2020_Jul_26_1748/rec_QA_run_02_block_001_trial_015.wav,,,,07,03,English,B1,True,False,True,False,False,True,True,True,True,True,True,True,No,2,No,No,No,No,2020_Jul_26_1748,nibs_stage_1,3.2.3,59.987271148843185,
2,0,2,0,,,,,1,0,1,0,16,0,16,0,,,,,,,,,,,,,,,,,,,,,,,,,,,,,,,,,,,,,,,,,,,,,,,,,Listen to the question and speak out your answer!,1768.1703758239746,None,1768.1364269256592,1770.170108795166,In der Morgen wasche ich mein Gesicht.,wasche,1769.5197653770447,1771.8034529685974,1772.1865894794464,1773.2033298015594,1784.7205865383148,None,1786.1373357772827,None,./data/Subject_07/Session_03/Exp_data/2020_Jul_26_1748/rec_QA_run_02_block_001_trial_016.wav,,,,07,03,English,B1,True,False,True,False,False,True,True,True,True,True,True,True,No,2,No,No,No,No,2020_Jul_26_1748,nibs_stage_1,3.2.3,59.987271148843185,
2,0,2,0,,,,,1,0,1,0,17,0,17,0,,,,,,,,,,,,,,,,,,,,,,,,,,,,,,,,,,,,,,,,,,,,,,,,,Listen to the question and speak out your answer!,1789.2042698860168,None,1789.1708445549011,1791.2043659687042,Das Auge ermöglicht Tieren das Sehen.,ermöglicht,1790.5875535011292,None,1793.3543734550476,1794.3710899353027,1805.7883715629578,None,1807.2052328586578,None,./data/Subject_07/Session_03/Exp_data/2020_Jul_26_1748/rec_QA_run_02_block_001_trial_017.wav,,,,07,03,English,B1,True,False,True,False,False,True,True,True,True,True,True,True,No,2,No,No,No,No,2020_Jul_26_1748,nibs_stage_1,3.2.3,59.987271148843185,
2,0,2,0,,,,,1,0,1,0,18,0,18,0,,,,,,,,,,,,,,,,,,,,,,,,,,,,,,,,,,,,,,,,,,,,,,,,,Listen to the question and speak out your answer!,1810.2386968135834,None,1810.2052645683289,1812.2386858463287,In der Arktis leben gefährliche Eisbären.,leben,1811.588648557663,None,1814.8556084632874,1815.8722097873688,1826.7894415855408,1827.806097984314,1828.2061579227448,None,./data/Subject_07/Session_03/Exp_data/2020_Jul_26_1748/rec_QA_run_02_block_001_trial_018.wav,,,,07,03,English,B1,True,False,True,False,False,True,True,True,True,True,True,True,No,2,No,No,No,No,2020_Jul_26_1748,nibs_stage_1,3.2.3,59.987271148843185,
2,0,2,0,,,,,1,0,1,0,19,0,19,0,,,,,,,,,,,,,,,,,,,,,,,,,,,,,,,,,,,,,,,,,,,,,,,,,Listen to the question and speak out your answer!,1831.273756980896,None,1831.2398266792297,1833.2731177806854,Er hat seine Katze oft mit Fisch gefüttert.,gefüttert,1832.6565515995026,1835.139877796173,1835.5233144760132,None,1847.8572175502777,1848.8742578029633,1849.2739708423615,None,./data/Subject_07/Session_03/Exp_data/2020_Jul_26_1748/rec_QA_run_02_block_001_trial_019.wav,,,,07,03,English,B1,True,False,True,False,False,True,True,True,True,True,True,True,No,2,No,No,No,No,2020_Jul_26_1748,nibs_stage_1,3.2.3,59.987271148843185,
2,0,2,0,,,,,1,0,1,0,20,0,20,0,,,,,,,,,,,,,,,,,,,,,,,,,,,,,,,,,,,,,,,,,,,,,,,,,Listen to the question and speak out your answer!,1852.3247377872467,None,1852.2906951904297,1854.3242409229279,"Die Firma hat einen Fachmann hinzugezogen, um das Netzwerk zu reparieren.",reparieren,1853.6741814613342,None,1858.8411355018616,None,1868.875170469284,1869.8916029930115,1870.2916469573975,None,./data/Subject_07/Session_03/Exp_data/2020_Jul_26_1748/rec_QA_run_02_block_001_trial_020.wav,,,,07,03,English,B1,True,False,True,False,False,True,True,True,True,True,True,True,No,2,No,No,No,No,2020_Jul_26_1748,nibs_stage_1,3.2.3,59.987271148843185,
2,0,2,0,,,,,1,0,1,0,21,0,21,0,,,,,,,,,,,,,,,,,,,,,,,,,,,,,,,,,,,,,,,,,,,,,,,,,Listen to the question and speak out your answer!,1873.3591067790985,None,1873.3252305984497,1875.3586559295654,"Damit Pflanzen gut wachsen, müssen wir sie mehr Wasser gießen.",gießen,1874.7419514656067,None,1878.7089295387268,None,1889.9426674842834,1890.9594857692719,1891.3594598770142,None,./data/Subject_07/Session_03/Exp_data/2020_Jul_26_1748/rec_QA_run_02_block_001_trial_021.wav,,,,07,03,English,B1,True,False,True,False,False,True,True,True,True,True,True,True,No,2,No,No,No,No,2020_Jul_26_1748,nibs_stage_1,3.2.3,59.987271148843185,
2,0,2,0,,,,,1,0,1,0,22,0,22,0,,,,,,,,,,,,,,,,,,,,,,,,,,,,,,,,,,,,,,,,,,,,,,,,,Listen to the question and speak out your answer!,1894.3936347961426,None,1894.3596866130829,1896.3930850028992,Sein Versprechen klingt glaubwürdig.,klingt,1895.743069410324,1898.026517868042,1898.443287372589,None,1910.9438614845276,None,1912.3605887889862,None,./data/Subject_07/Session_03/Exp_data/2020_Jul_26_1748/rec_QA_run_02_block_001_trial_022.wav,,,,07,03,English,B1,True,False,True,False,False,True,True,True,True,True,True,True,No,2,No,No,No,No,2020_Jul_26_1748,nibs_stage_1,3.2.3,59.987271148843185,
2,0,2,0,,,,,1,0,1,0,23,0,23,0,,,,,,,,,,,,,,,,,,,,,,,,,,,,,,,,,,,,,,,,,,,,,,,,,Listen to the question and speak out your answer!,1915.4280469417572,None,1915.3940997123718,1917.4275238513947,"Weil er so hungrig war, hat Franz einmal einen Apfel gestohlen.",gestohlen,1916.8108885288239,None,1920.9777073860168,None,1931.9784743785858,None,1933.3949959278107,None,./data/Subject_07/Session_03/Exp_data/2020_Jul_26_1748/rec_QA_run_02_block_001_trial_023.wav,,,,07,03,English,B1,True,False,True,False,False,True,True,True,True,True,True,True,No,2,No,No,No,No,2020_Jul_26_1748,nibs_stage_1,3.2.3,59.987271148843185,
2,0,2,0,,,,,1,0,1,0,24,0,24,0,,,,,,,,,,,,,,,,,,,,,,,,,,,,,,,,,,,,,,,,,,,,,,,,,Listen to the question and speak out your answer!,1936.4791798591614,None,1936.4453122615814,1938.4786880016327,"Ausländische Studenten, die wenig Geld haben, brauchen ein Stipendium.",brauchen,1937.8285794258118,1942.3124268054962,1942.6955034732819,1943.7122688293457,1953.0293893814087,None,1954.4461188316345,None,./data/Subject_07/Session_03/Exp_data/2020_Jul_26_1748/rec_QA_run_02_block_001_trial_024.wav,,,,07,03,English,B1,True,False,True,False,False,True,True,True,True,True,True,True,No,2,No,No,No,No,2020_Jul_26_1748,nibs_stage_1,3.2.3,59.987271148843185,
2,0,2,0,,,,,1,0,1,0,,,,,,,,,,,,,,,,,,,,,,,,,,,,,,,,,,,,,,,,,,1958.4968869686127,None,,,,,,,,,,,,,,,,,,,,,,,,,,,,,07,03,English,B1,True,False,True,False,False,True,True,True,True,True,True,True,No,2,No,No,No,No,2020_Jul_26_1748,nibs_stage_1,3.2.3,59.987271148843185,
2,0,2,0,,,,,,,,,,,,,,,,,,,,,,,,,,,,,,,,,,,,,,,,,,,,,,,,,,,,,,,,,,,,,,,,,,,,,,,,,,,,,Please remain seated until further instruction via the earphone.,58.1973237991333,None,07,03,English,B1,True,False,True,False,False,True,True,True,True,True,True,True,No,2,No,No,No,No,2020_Jul_26_1748,nibs_stage_1,3.2.3,59.987271148843185,
