run.thisRepN,run.thisTrialN,run.thisN,run.thisIndex,artifact_trial.thisRepN,artifact_trial.thisTrialN,artifact_trial.thisN,artifact_trial.thisIndex,QA_block.thisRepN,QA_block.thisTrialN,QA_block.thisN,QA_block.thisIndex,QA_trial.thisRepN,QA_trial.thisTrialN,QA_trial.thisN,QA_trial.thisIndex,fade_in_text.text,fade_in_text.started,fade_in_text.stopped,Artifact_intro_title.started,Artifact_intro_title.stopped,Artifact_intro_text.text,Artifact_intro_text.started,Artifact_intro_text.stopped,Artifact_intro_audio.started,Artifact_intro_audio.stopped,Artifact_intro_cont.started,Artifact_intro_cont.stopped,Artifact_rec_text.text,Artifact_rec_text.started,Artifact_rec_text.stopped,Artifact_rec_beep_hint.started,Artifact_rec_beep_hint.stopped,Artifact_rec_action.started,Artifact_rec_action.stopped,Artifact_rec_beep_start.started,Artifact_rec_beep_start.stopped,Artifact_rec_recording.started,Artifact_rec_recording.stopped,Artifact_rec_beep_end.started,Artifact_rec_beep_end.stopped,Artifact_rec_break.started,Artifact_rec_break.stopped,RS_intro_title.started,RS_intro_title.stopped,RS_intro_text.text,RS_intro_text.started,RS_intro_text.stopped,RS_intro_audio.started,RS_intro_audio.stopped,RS_rec_text.text,RS_rec_text.started,RS_rec_text.stopped,Pause_cont.started,Pause_cont.stopped,QA_intro_title.started,QA_intro_title.stopped,QA_intro_text.text,QA_intro_text.started,QA_intro_text.stopped,QA_intro_audio.started,QA_intro_audio.stopped,QA_intro_cont.started,QA_intro_cont.stopped,QA_rec_text.text,QA_rec_text.started,QA_rec_text.stopped,QA_rec_beep_hint.started,QA_rec_beep_hint.stopped,QA_rec_question.sen_text,QA_rec_question.cen_text,QA_rec_question.started,QA_rec_question.stopped,QA_rec_beep_start.started,QA_rec_beep_start.stopped,QA_rec_beep_end.started,QA_rec_beep_end.stopped,QA_rec_break.started,QA_rec_break.stopped,filename,fade_out_text.text,fade_out_text.started,fade_out_text.stopped,participant,session,First language,German level,Full_screen,Instruction,Intro,Artifact,Cali_pre,Fade_in_out,Artifact_within,Resting_State,QA,Pause,Cali_post,End,Breakpoint_Cali_pre_trial,Breakpoint_Run,Breakpoint_RS_block,Breakpoint_QA_block,Breakpoint_QA_trial,Breakpoint_Cali_post_trial,date,expName,psychopyVersion,frameRate,
2,0,2,0,0,0,0,0,,,,,,,,,Please remain seated until further instruction via the earphone.,57.64510202407837,None,59.67863392829895,86.7131040096283,"  - Task: Artifacts collection   
  - Please follow audio instruction              
",59.67863392829895,86.7131040096283,59.661651372909546,None,86.06312203407288,None,,88.77999091148376,None,88.76300621032715,90.76334190368652,90.14656472206116,None,93.54674673080444,None,94.94690155982971,104.94743204116821,105.34734058380127,None,106.74752497673035,107.74748492240906,,,,,,,,,,,,,,,,,,,,,,,,,,,,,,,,,,,,,,,,,06,02,English,A2,True,False,True,False,False,True,True,True,True,True,True,True,No,2,No,No,No,No,2020_Jul_21_1527,nibs_stage_1,3.2.3,59.94380496951576,
2,0,2,0,1,0,1,0,,,,,,,,,,,,,,,,,,,,,,110.79869294166565,None,110.78082036972046,112.7813789844513,112.16487169265747,None,115.56488370895386,None,116.96494770050049,126.96546292304993,127.36547660827637,None,128.76563501358032,129.76567101478577,,,,,,,,,,,,,,,,,,,,,,,,,,,,,,,,,,,,,,,,,06,02,English,A2,True,False,True,False,False,True,True,True,True,True,True,True,No,2,No,No,No,No,2020_Jul_21_1527,nibs_stage_1,3.2.3,59.94380496951576,
2,0,2,0,2,0,2,0,,,,,,,,,,,,,,,,,,,,,,132.81562900543213,None,132.79890942573547,134.79896306991577,134.18222069740295,None,137.58245277404785,None,138.98251366615295,148.98304891586304,149.38307166099548,None,150.78313088417053,151.78319001197815,,,,,,,,,,,,,,,,,,,,,,,,,,,,,,,,,,,,,,,,,06,02,English,A2,True,False,True,False,False,True,True,True,True,True,True,True,No,2,No,No,No,No,2020_Jul_21_1527,nibs_stage_1,3.2.3,59.94380496951576,
2,0,2,0,3,0,3,0,,,,,,,,,,,,,,,,,,,,,,154.83396792411804,None,154.81647038459778,156.81679797172546,156.20011067390442,None,159.60018873214722,None,161.0003535747528,171.000874042511,171.40089058876038,None,172.80096697807312,173.80101799964905,,,,,,,,,,,,,,,,,,,,,,,,,,,,,,,,,,,,,,,,,06,02,English,A2,True,False,True,False,False,True,True,True,True,True,True,True,No,2,No,No,No,No,2020_Jul_21_1527,nibs_stage_1,3.2.3,59.94380496951576,
2,0,2,0,4,0,4,0,,,,,,,,,,,,,,,,,,,,,,176.85186100006104,None,176.83427333831787,178.83461594581604,178.21793365478516,None,181.61807775497437,None,183.01817965507507,193.01868796348572,193.4187207221985,194.4187729358673,194.81878304481506,195.81881594657898,,,,,,,,,,,,,,,,,,,,,,,,,,,,,,,,,,,,,,,,,06,02,English,A2,True,False,True,False,False,True,True,True,True,True,True,True,No,2,No,No,No,No,2020_Jul_21_1527,nibs_stage_1,3.2.3,59.94380496951576,
2,0,2,0,5,0,5,0,,,,,,,,,,,,,,,,,,,,,,198.86975598335266,None,198.85211324691772,200.85244607925415,200.23573875427246,None,203.63591957092285,None,205.03632259368896,215.03650307655334,215.43655562400818,216.43780994415283,216.85346293449402,217.8533148765564,,,,,,,,,,,,,,,,,,,,,,,,,,,,,,,,,,,,,,,,,06,02,English,A2,True,False,True,False,False,True,True,True,True,True,True,True,No,2,No,No,No,No,2020_Jul_21_1527,nibs_stage_1,3.2.3,59.94380496951576,
2,0,2,0,6,0,6,0,,,,,,,,,,,,,,,,,,,,,,220.88762092590332,None,220.8699233531952,222.87024307250977,222.25370860099792,None,225.65383172035217,None,227.05406856536865,237.05453300476074,237.45513677597046,None,238.85463500022888,239.85475492477417,,,,,,,,,,,,,,,,,,,,,,,,,,,,,,,,,,,,,,,,,06,02,English,A2,True,False,True,False,False,True,True,True,True,True,True,True,No,2,No,No,No,No,2020_Jul_21_1527,nibs_stage_1,3.2.3,59.94380496951576,
2,0,2,0,7,0,7,0,,,,,,,,,,,,,,,,,,,,,,242.9049220085144,None,242.88832330703735,244.88830399513245,244.27157473564148,247.27177691459656,247.67178773880005,None,249.07184767723083,259.07249307632446,259.4724636077881,260.47244787216187,260.88911986351013,261.889102935791,,,,,,,,,,,,,,,,,,,,,,,,,,,,,,,,,,,,,,,,,06,02,English,A2,True,False,True,False,False,True,True,True,True,True,True,True,No,2,No,No,No,No,2020_Jul_21_1527,nibs_stage_1,3.2.3,59.94380496951576,
2,0,2,0,8,0,8,0,,,,,,,,,,,,,,,,,,,,,,264.922709941864,None,264.9064643383026,266.90610694885254,266.28955268859863,269.2895579338074,269.6895866394043,None,271.1063005924225,281.1073000431061,281.4901967048645,282.4902069568634,282.89022994041443,283.89035201072693,,,,,,,,,,,,,,,,,,,,,,,,,,,,,,,,,,,,,,,,,06,02,English,A2,True,False,True,False,False,True,True,True,True,True,True,True,No,2,No,No,No,No,2020_Jul_21_1527,nibs_stage_1,3.2.3,59.94380496951576,
2,0,2,0,9,0,9,0,,,,,,,,,,,,,,,,,,,,,,286.94047498703003,None,286.9236023426056,288.92393684387207,288.3072226047516,291.3073799610138,291.70741868019104,None,293.1078176498413,303.10799503326416,303.50838565826416,304.5084319114685,304.9085350036621,305.90848684310913,,,,,,,,,,,,,,,,,,,,,,,,,,,,,,,,,,,,,,,,,06,02,English,A2,True,False,True,False,False,True,True,True,True,True,True,True,No,2,No,No,No,No,2020_Jul_21_1527,nibs_stage_1,3.2.3,59.94380496951576,
2,0,2,0,10,0,10,0,,,,,,,,,,,,,,,,,,,,,,308.95898485183716,None,308.94149923324585,310.94175004959106,310.3252296447754,None,313.7252447605133,None,315.12543869018555,325.1259319782257,325.5258767604828,326.5261449813843,326.925843000412,327.92601585388184,,,,,,,,,,,,,,,,,,,,,,,,,,,,,,,,,,,,,,,,,06,02,English,A2,True,False,True,False,False,True,True,True,True,True,True,True,No,2,No,No,No,No,2020_Jul_21_1527,nibs_stage_1,3.2.3,59.94380496951576,
2,0,2,0,11,0,11,0,,,,,,,,,,,,,,,,,,,,,,330.9761290550232,None,330.95933628082275,332.9595708847046,332.34290766716003,None,335.74329566955566,None,337.1431796550751,347.143905878067,347.54365062713623,348.5437068939209,348.9439649581909,349.97712087631226,,,,,,,,,,,,,,,,,,,,,,,,,,,,,,,,,,,,,,,,,06,02,English,A2,True,False,True,False,False,True,True,True,True,True,True,True,No,2,No,No,No,No,2020_Jul_21_1527,nibs_stage_1,3.2.3,59.94380496951576,
2,0,2,0,12,0,12,0,,,,,,,,,,,,,,,,,,,,,,352.9939880371094,None,352.97706723213196,354.97754192352295,354.36069774627686,357.3608498573303,357.76086258888245,None,359.1609456539154,369.1614649295807,369.561491727829,None,370.97807908058167,371.97827100753784,,,,,,,,,,,,,,,,,,,,,,,,,,,,,,,,,,,,,,,,,06,02,English,A2,True,False,True,False,False,True,True,True,True,True,True,True,No,2,No,No,No,No,2020_Jul_21_1527,nibs_stage_1,3.2.3,59.94380496951576,
2,0,2,0,13,0,13,0,,,,,,,,,,,,,,,,,,,,,,375.0285038948059,None,375.0115752220154,377.02843284606934,376.4116177558899,None,379.8117926120758,None,381.21186566352844,391.22905707359314,391.61247277259827,None,393.0291609764099,394.06254506111145,,,,,,,,,,,,,,,,,,,,,,,,,,,,,,,,,,,,,,,,,06,02,English,A2,True,False,True,False,False,True,True,True,True,True,True,True,No,2,No,No,No,No,2020_Jul_21_1527,nibs_stage_1,3.2.3,59.94380496951576,
2,0,2,0,14,0,14,0,,,,,,,,,,,,,,,,,,,,,,397.0635950565338,None,397.04581332206726,399.06280493736267,398.44608759880066,None,401.84629559516907,None,403.2463777065277,413.26354789733887,413.6469786167145,414.6635420322418,415.0636339187622,416.09703397750854,,,,,,,,,,,,,,,,,,,,,,,,,,,,,,,,,,,,,,,,,06,02,English,A2,True,False,True,False,False,True,True,True,True,True,True,True,No,2,No,No,No,No,2020_Jul_21_1527,nibs_stage_1,3.2.3,59.94380496951576,
2,0,2,0,,,,,0,0,0,0,0,0,0,0,,,,,,,,,,,,,,,,,,,,,,,,,,,,626.558522939682,None," - Task: Keep seated and relaxed with either      
             opening or closing eyes                  
 - Beep sound with decreasing pitch: Block finish 
",626.558522939682,None,626.5411789417267,None,"Please keep relaxed and open your eyes.
Note: Blinking is allowed.",649.6094498634338,829.6520719528198,833.0523550510406,None,848.987212896347,889.0219750404358," - Task: Listen to the question& Speak out answer 
 - Melodious beep sound: Trial start              
 - Silent sound (blank): censored word            
 - Beep sound with increasing pitch: Rec. start   
 - Beep sound with decreasing pitch: Rec. finish  
",848.987212896347,889.0219750404358,848.969446182251,None,888.4051659107208,None,Listen to the question and speak out your answer!,893.5896639823914,None,893.5717716217041,895.5888738632202,"Sie brauchen kein Ticket, das Konzert ist kostenlos.",brauchen,894.9721727371216,898.4890260696411,898.8723795413971,None,910.1730287075043,None,911.5897369384766,None,./data/Subject_06/Session_02/Exp_data/2020_Jul_21_1527/rec_QA_run_02_block_000_trial_000.wav,,,,06,02,English,A2,True,False,True,False,False,True,True,True,True,True,True,True,No,2,No,No,No,No,2020_Jul_21_1527,nibs_stage_1,3.2.3,59.94380496951576,
2,0,2,0,,,,,0,0,0,0,1,0,1,0,,,,,,,,,,,,,,,,,,,,,,,,,,,,,,,,,,,,,,,,,,,,,,,,,Listen to the question and speak out your answer!,914.6569690704346,None,914.6396906375885,916.65665102005,"Alchemisten haben geglaubt, sie können Gold herstellen.",herstellen,916.0400125980377,None,919.9069237709045,None,931.2407476902008,None,932.6575119495392,None,./data/Subject_06/Session_02/Exp_data/2020_Jul_21_1527/rec_QA_run_02_block_000_trial_001.wav,,,,06,02,English,A2,True,False,True,False,False,True,True,True,True,True,True,True,No,2,No,No,No,No,2020_Jul_21_1527,nibs_stage_1,3.2.3,59.94380496951576,
2,0,2,0,,,,,0,0,0,0,2,0,2,0,,,,,,,,,,,,,,,,,,,,,,,,,,,,,,,,,,,,,,,,,,,,,,,,,Listen to the question and speak out your answer!,935.7248809337616,None,935.6907739639282,937.7244720458984,"Da Sie keine andere Wahl haben, können Sie nicht wählen.",wählen,937.1077156066895,None,940.7412576675415,None,952.2918655872345,None,953.7086119651794,None,./data/Subject_06/Session_02/Exp_data/2020_Jul_21_1527/rec_QA_run_02_block_000_trial_002.wav,,,,06,02,English,A2,True,False,True,False,False,True,True,True,True,True,True,True,No,2,No,No,No,No,2020_Jul_21_1527,nibs_stage_1,3.2.3,59.94380496951576,
2,0,2,0,,,,,0,0,0,0,3,0,3,0,,,,,,,,,,,,,,,,,,,,,,,,,,,,,,,,,,,,,,,,,,,,,,,,,Listen to the question and speak out your answer!,956.7757408618927,None,956.7585127353668,958.7755279541016,"Befristete Verträge enden automatisch, wenn sie nicht erneuert werden.",enden,958.158834695816,962.4423899650574,962.8257396221161,None,973.359632730484,974.376366853714,974.7763869762421,None,./data/Subject_06/Session_02/Exp_data/2020_Jul_21_1527/rec_QA_run_02_block_000_trial_003.wav,,,,06,02,English,A2,True,False,True,False,False,True,True,True,True,True,True,True,No,2,No,No,No,No,2020_Jul_21_1527,nibs_stage_1,3.2.3,59.94380496951576,
2,0,2,0,,,,,0,0,0,0,4,0,4,0,,,,,,,,,,,,,,,,,,,,,,,,,,,,,,,,,,,,,,,,,,,,,,,,,Listen to the question and speak out your answer!,977.8433928489685,None,977.8096380233765,979.8433179855347,"Wenn ich im Unterricht aufpasse, werde ich den Test sicher bestehen.",aufpasse,979.2266025543213,None,983.3601217269897,None,994.4274127483368,995.4441299438477,995.8441438674927,None,./data/Subject_06/Session_02/Exp_data/2020_Jul_21_1527/rec_QA_run_02_block_000_trial_004.wav,,,,06,02,English,A2,True,False,True,False,False,True,True,True,True,True,True,True,No,2,No,No,No,No,2020_Jul_21_1527,nibs_stage_1,3.2.3,59.94380496951576,
2,0,2,0,,,,,0,0,0,0,5,0,5,0,,,,,,,,,,,,,,,,,,,,,,,,,,,,,,,,,,,,,,,,,,,,,,,,,Listen to the question and speak out your answer!,998.8791279792786,None,998.8607556819916,1000.8777239322662,"Ich muss einen Schirm holen, weil es regnet.",holen,1000.2610425949097,None,1003.294531583786,None,1015.4619705677032,None,1016.8785910606384,None,./data/Subject_06/Session_02/Exp_data/2020_Jul_21_1527/rec_QA_run_02_block_000_trial_005.wav,,,,06,02,English,A2,True,False,True,False,False,True,True,True,True,True,True,True,No,2,No,No,No,No,2020_Jul_21_1527,nibs_stage_1,3.2.3,59.94380496951576,
2,0,2,0,,,,,0,0,0,0,6,0,6,0,,,,,,,,,,,,,,,,,,,,,,,,,,,,,,,,,,,,,,,,,,,,,,,,,Listen to the question and speak out your answer!,1019.8957328796387,None,1019.8785281181335,1021.8955209255219,Sie besichtigen die Sehenswürdigkeiten.,besichtigen,1021.2788996696472,1023.7289459705353,1024.1123006343842,None,1036.4795825481415,1037.4963419437408,1037.8963549137115,None,./data/Subject_06/Session_02/Exp_data/2020_Jul_21_1527/rec_QA_run_02_block_000_trial_006.wav,,,,06,02,English,A2,True,False,True,False,False,True,True,True,True,True,True,True,No,2,No,No,No,No,2020_Jul_21_1527,nibs_stage_1,3.2.3,59.94380496951576,
2,0,2,0,,,,,0,0,0,0,7,0,7,0,,,,,,,,,,,,,,,,,,,,,,,,,,,,,,,,,,,,,,,,,,,,,,,,,Listen to the question and speak out your answer!,1040.9633438587189,None,1040.9463756084442,1042.9632799625397,Susi isst zum Frühstück gerne ein weiches Ei.,isst,1042.346598625183,None,1045.7468347549438,None,1057.5474817752838,None,1058.9642379283905,None,./data/Subject_06/Session_02/Exp_data/2020_Jul_21_1527/rec_QA_run_02_block_000_trial_007.wav,,,,06,02,English,A2,True,False,True,False,False,True,True,True,True,True,True,True,No,2,No,No,No,No,2020_Jul_21_1527,nibs_stage_1,3.2.3,59.94380496951576,
2,0,2,0,,,,,0,0,0,0,8,0,8,0,,,,,,,,,,,,,,,,,,,,,,,,,,,,,,,,,,,,,,,,,,,,,,,,,Listen to the question and speak out your answer!,1062.0149040222168,None,1061.997477054596,1064.0146069526672,Wir sollten das Menü auf ein grünes Blatt Papier drucken.,drucken,1063.3977887630463,None,1067.1980006694794,1068.2147018909454,1078.5986397266388,None,1080.0153269767761,None,./data/Subject_06/Session_02/Exp_data/2020_Jul_21_1527/rec_QA_run_02_block_000_trial_008.wav,,,,06,02,English,A2,True,False,True,False,False,True,True,True,True,True,True,True,No,2,No,No,No,No,2020_Jul_21_1527,nibs_stage_1,3.2.3,59.94380496951576,
2,0,2,0,,,,,0,0,0,0,9,0,9,0,,,,,,,,,,,,,,,,,,,,,,,,,,,,,,,,,,,,,,,,,,,,,,,,,Listen to the question and speak out your answer!,1083.0821800231934,None,1083.0486190319061,1085.082368850708,"Das Fenster ist offen, aber ich werde es schließen.",schließen,1084.4655706882477,1087.4823579788208,1087.8657586574554,None,1099.6661977767944,None,1101.083132982254,None,./data/Subject_06/Session_02/Exp_data/2020_Jul_21_1527/rec_QA_run_02_block_000_trial_009.wav,,,,06,02,English,A2,True,False,True,False,False,True,True,True,True,True,True,True,No,2,No,No,No,No,2020_Jul_21_1527,nibs_stage_1,3.2.3,59.94380496951576,
2,0,2,0,,,,,0,0,0,0,10,0,10,0,,,,,,,,,,,,,,,,,,,,,,,,,,,,,,,,,,,,,,,,,,,,,,,,,Listen to the question and speak out your answer!,1104.1166038513184,None,1104.0829451084137,1106.11660695076,Dort an der Ampel kannst du die Straße überqueren.,überqueren,1105.4999227523804,1108.5168390274048,1108.8668415546417,None,1120.7007145881653,None,1122.1174619197845,None,./data/Subject_06/Session_02/Exp_data/2020_Jul_21_1527/rec_QA_run_02_block_000_trial_010.wav,,,,06,02,English,A2,True,False,True,False,False,True,True,True,True,True,True,True,No,2,No,No,No,No,2020_Jul_21_1527,nibs_stage_1,3.2.3,59.94380496951576,
2,0,2,0,,,,,0,0,0,0,11,0,11,0,,,,,,,,,,,,,,,,,,,,,,,,,,,,,,,,,,,,,,,,,,,,,,,,,Listen to the question and speak out your answer!,1125.1517469882965,None,1125.1340618133545,1127.151036977768,"Bitte zahlen Sie sofort, wir nehmen keinen Kredit.",zahlen,1126.5343296527863,None,1130.2345547676086,None,1141.7185237407684,None,1143.1352279186249,None,./data/Subject_06/Session_02/Exp_data/2020_Jul_21_1527/rec_QA_run_02_block_000_trial_011.wav,,,,06,02,English,A2,True,False,True,False,False,True,True,True,True,True,True,True,No,2,No,No,No,No,2020_Jul_21_1527,nibs_stage_1,3.2.3,59.94380496951576,
2,0,2,0,,,,,0,0,0,0,12,0,12,0,,,,,,,,,,,,,,,,,,,,,,,,,,,,,,,,,,,,,,,,,,,,,,,,,Listen to the question and speak out your answer!,1146.1858999729156,None,1146.1684219837189,1148.185474872589,"Ich benutze mein Handy, um Textnachrichten zu senden.",senden,1147.5687856674194,1151.0856728553772,1151.468986749649,None,1162.7696995735168,1163.786311864853,1164.18634390831,None,./data/Subject_06/Session_02/Exp_data/2020_Jul_21_1527/rec_QA_run_02_block_000_trial_012.wav,,,,06,02,English,A2,True,False,True,False,False,True,True,True,True,True,True,True,No,2,No,No,No,No,2020_Jul_21_1527,nibs_stage_1,3.2.3,59.94380496951576,
2,0,2,0,,,,,0,0,0,0,13,0,13,0,,,,,,,,,,,,,,,,,,,,,,,,,,,,,,,,,,,,,,,,,,,,,,,,,Listen to the question and speak out your answer!,1167.254019021988,None,1167.2363607883453,1169.253268957138,Eine Stunde kann man in Minuten und Sekunden unterteilen.,unterteilen,1168.6365706920624,None,1172.4700787067413,None,1183.8373925685883,None,1185.254196882248,None,./data/Subject_06/Session_02/Exp_data/2020_Jul_21_1527/rec_QA_run_02_block_000_trial_013.wav,,,,06,02,English,A2,True,False,True,False,False,True,True,True,True,True,True,True,No,2,No,No,No,No,2020_Jul_21_1527,nibs_stage_1,3.2.3,59.94380496951576,
2,0,2,0,,,,,0,0,0,0,14,0,14,0,,,,,,,,,,,,,,,,,,,,,,,,,,,,,,,,,,,,,,,,,,,,,,,,,Listen to the question and speak out your answer!,1188.3215839862823,None,1188.2873749732971,1190.3210430145264,"Ich gehe ins Museum, um mir die Gemälde anzusehen.",anzusehen,1189.7042605876923,None,1193.4045085906982,1194.421247959137,1204.9051337242126,None,1206.3219170570374,None,./data/Subject_06/Session_02/Exp_data/2020_Jul_21_1527/rec_QA_run_02_block_000_trial_014.wav,,,,06,02,English,A2,True,False,True,False,False,True,True,True,True,True,True,True,No,2,No,No,No,No,2020_Jul_21_1527,nibs_stage_1,3.2.3,59.94380496951576,
2,0,2,0,,,,,0,0,0,0,15,0,15,0,,,,,,,,,,,,,,,,,,,,,,,,,,,,,,,,,,,,,,,,,,,,,,,,,Listen to the question and speak out your answer!,1209.3560349941254,None,1209.321809053421,1211.3554499149323,"Sie besichtigten das Haus, bevor sie es kauften.",besichtigten,1210.738775730133,None,1214.2723836898804,None,1225.9395496845245,1226.9565930366516,1227.3563158512115,None,./data/Subject_06/Session_02/Exp_data/2020_Jul_21_1527/rec_QA_run_02_block_000_trial_015.wav,,,,06,02,English,A2,True,False,True,False,False,True,True,True,True,True,True,True,No,2,No,No,No,No,2020_Jul_21_1527,nibs_stage_1,3.2.3,59.94380496951576,
2,0,2,0,,,,,0,0,0,0,16,0,16,0,,,,,,,,,,,,,,,,,,,,,,,,,,,,,,,,,,,,,,,,,,,,,,,,,Listen to the question and speak out your answer!,1230.3901150226593,None,1230.3729348182678,1232.38991689682,Die Armbanduhr ist aus rostfreiem Stahl gefertigt und wird nicht rosten.,rosten,1231.7732145786285,None,1236.4735896587372,None,1246.940679550171,None,1248.3574478626251,None,./data/Subject_06/Session_02/Exp_data/2020_Jul_21_1527/rec_QA_run_02_block_000_trial_016.wav,,,,06,02,English,A2,True,False,True,False,False,True,True,True,True,True,True,True,No,2,No,No,No,No,2020_Jul_21_1527,nibs_stage_1,3.2.3,59.94380496951576,
2,0,2,0,,,,,0,0,0,0,17,0,17,0,,,,,,,,,,,,,,,,,,,,,,,,,,,,,,,,,,,,,,,,,,,,,,,,,Listen to the question and speak out your answer!,1251.4259328842163,None,1251.4073536396027,1253.4243500232697,"Mein Bett ist gemütlich und warm, ich möchte nicht aufstehen.",aufstehen,1252.807650566101,1256.3247480392456,1256.70787358284,1257.7246119976044,1268.0084717273712,1269.0251948833466,1269.4251980781555,None,./data/Subject_06/Session_02/Exp_data/2020_Jul_21_1527/rec_QA_run_02_block_000_trial_017.wav,,,,06,02,English,A2,True,False,True,False,False,True,True,True,True,True,True,True,No,2,No,No,No,No,2020_Jul_21_1527,nibs_stage_1,3.2.3,59.94380496951576,
2,0,2,0,,,,,0,0,0,0,18,0,18,0,,,,,,,,,,,,,,,,,,,,,,,,,,,,,,,,,,,,,,,,,,,,,,,,,Listen to the question and speak out your answer!,1272.4587788581848,None,1272.4251561164856,1274.458792924881,Mein Freund schenkt mir eine Schachtel mit Schokolade.,schenkt,1273.8421087265015,None,1277.2755987644196,1278.2923340797424,1289.0428986549377,1290.059532880783,1290.4596629142761,None,./data/Subject_06/Session_02/Exp_data/2020_Jul_21_1527/rec_QA_run_02_block_000_trial_018.wav,,,,06,02,English,A2,True,False,True,False,False,True,True,True,True,True,True,True,No,2,No,No,No,No,2020_Jul_21_1527,nibs_stage_1,3.2.3,59.94380496951576,
2,0,2,0,,,,,0,0,0,0,19,0,19,0,,,,,,,,,,,,,,,,,,,,,,,,,,,,,,,,,,,,,,,,,,,,,,,,,Listen to the question and speak out your answer!,1293.4936349391937,None,1293.4597580432892,1295.493234872818,Diese Speise schmeckt sauer.,schmeckt,1294.8765325546265,1296.893317937851,1297.2433025836945,None,1310.0440027713776,None,1311.4609639644623,None,./data/Subject_06/Session_02/Exp_data/2020_Jul_21_1527/rec_QA_run_02_block_000_trial_019.wav,,,,06,02,English,A2,True,False,True,False,False,True,True,True,True,True,True,True,No,2,No,No,No,No,2020_Jul_21_1527,nibs_stage_1,3.2.3,59.94380496951576,
2,0,2,0,,,,,0,0,0,0,20,0,20,0,,,,,,,,,,,,,,,,,,,,,,,,,,,,,,,,,,,,,,,,,,,,,,,,,Listen to the question and speak out your answer!,1314.528501033783,None,1314.5106678009033,1316.527659893036,"In der Schule lernen die Kinder lesen, schreiben und rechnen.",lernen,1315.9109425544739,None,1320.0445005893707,1321.0612380504608,1331.09508061409,None,1332.5118119716644,None,./data/Subject_06/Session_02/Exp_data/2020_Jul_21_1527/rec_QA_run_02_block_000_trial_020.wav,,,,06,02,English,A2,True,False,True,False,False,True,True,True,True,True,True,True,No,2,No,No,No,No,2020_Jul_21_1527,nibs_stage_1,3.2.3,59.94380496951576,
2,0,2,0,,,,,0,0,0,0,21,0,21,0,,,,,,,,,,,,,,,,,,,,,,,,,,,,,,,,,,,,,,,,,,,,,,,,,Listen to the question and speak out your answer!,1335.5786929130554,None,1335.5451140403748,1337.579048871994,"Der Zug fährt gleich ab, wir müssen uns beeilen.",beeilen,1336.9620866775513,1339.8458449840546,1340.2288737297058,None,1352.1628427505493,None,1353.5795948505402,None,./data/Subject_06/Session_02/Exp_data/2020_Jul_21_1527/rec_QA_run_02_block_000_trial_021.wav,,,,06,02,English,A2,True,False,True,False,False,True,True,True,True,True,True,True,No,2,No,No,No,No,2020_Jul_21_1527,nibs_stage_1,3.2.3,59.94380496951576,
2,0,2,0,,,,,0,0,0,0,22,0,22,0,,,,,,,,,,,,,,,,,,,,,,,,,,,,,,,,,,,,,,,,,,,,,,,,,Listen to the question and speak out your answer!,1356.6137208938599,None,1356.5795500278473,1358.6131808757782,Der Lehrer unterrichtet Schüler und bringt ihnen verschiedene Dinge bei.,unterrichtet,1357.996408700943,None,1362.430246591568,None,1373.180630683899,None,1374.5973529815674,None,./data/Subject_06/Session_02/Exp_data/2020_Jul_21_1527/rec_QA_run_02_block_000_trial_022.wav,,,,06,02,English,A2,True,False,True,False,False,True,True,True,True,True,True,True,No,2,No,No,No,No,2020_Jul_21_1527,nibs_stage_1,3.2.3,59.94380496951576,
2,0,2,0,,,,,0,0,0,0,23,0,23,0,,,,,,,,,,,,,,,,,,,,,,,,,,,,,,,,,,,,,,,,,,,,,,,,,Listen to the question and speak out your answer!,1377.6648280620575,None,1377.6306910514832,1379.6643550395966,"Wir müssen Mittel und Wege finden, um das zu ändern.",finden,1379.047655582428,1382.2310960292816,1382.6145305633545,None,1394.2484986782074,None,1395.6652119159698,None,./data/Subject_06/Session_02/Exp_data/2020_Jul_21_1527/rec_QA_run_02_block_000_trial_023.wav,,,,06,02,English,A2,True,False,True,False,False,True,True,True,True,True,True,True,No,2,No,No,No,No,2020_Jul_21_1527,nibs_stage_1,3.2.3,59.94380496951576,
2,0,2,0,,,,,0,0,0,0,24,0,24,0,,,,,,,,,,,,,,,,,,,,,,,,,,,,,,,,,,,,,,,,,,,,,,,,,Listen to the question and speak out your answer!,1398.6992809772491,None,1398.6650660037994,1400.6987290382385,Diese beiden Handschuhe gehören zusammen.,gehören,1400.0820116996765,1402.6655869483948,1403.0488367080688,None,1415.2828397750854,1416.2995309829712,1416.6995358467102,None,./data/Subject_06/Session_02/Exp_data/2020_Jul_21_1527/rec_QA_run_02_block_000_trial_024.wav,,,,06,02,English,A2,True,False,True,False,False,True,True,True,True,True,True,True,No,2,No,No,No,No,2020_Jul_21_1527,nibs_stage_1,3.2.3,59.94380496951576,
2,0,2,0,,,,,0,0,0,0,,,,,,,,,,,,,,,,,,,,,,,,,,,,,,,,,,,,,,,,,,1420.7168798446655,None,,,,,,,,,,,,,,,,,,,,,,,,,,,,,06,02,English,A2,True,False,True,False,False,True,True,True,True,True,True,True,No,2,No,No,No,No,2020_Jul_21_1527,nibs_stage_1,3.2.3,59.94380496951576,
2,0,2,0,,,,,1,0,1,0,0,0,0,0,,,,,,,,,,,,,,,,,,,,,,,,,,,,,,,,,,,,,,,,,,,,,,,,,Listen to the question and speak out your answer!,1437.484058856964,None,1437.4505705833435,1439.4841558933258,Die USA haben viele Satelliten in den Weltraum geschickt.,geschickt,1438.834038734436,None,1442.800907611847,None,1454.034865617752,None,1455.4516179561615,None,./data/Subject_06/Session_02/Exp_data/2020_Jul_21_1527/rec_QA_run_02_block_001_trial_000.wav,,,,06,02,English,A2,True,False,True,False,False,True,True,True,True,True,True,True,No,2,No,No,No,No,2020_Jul_21_1527,nibs_stage_1,3.2.3,59.94380496951576,
2,0,2,0,,,,,1,0,1,0,1,0,1,0,,,,,,,,,,,,,,,,,,,,,,,,,,,,,,,,,,,,,,,,,,,,,,,,,Listen to the question and speak out your answer!,1458.5023798942566,None,1458.4681673049927,1460.501839876175,Entweder hat mir jemand die Geldtasche gestohlen oder ich habe sie verloren.,verloren,1459.8518416881561,None,1464.6186985969543,None,1475.0526247024536,None,1476.4693369865417,None,./data/Subject_06/Session_02/Exp_data/2020_Jul_21_1527/rec_QA_run_02_block_001_trial_001.wav,,,,06,02,English,A2,True,False,True,False,False,True,True,True,True,True,True,True,No,2,No,No,No,No,2020_Jul_21_1527,nibs_stage_1,3.2.3,59.94380496951576,
2,0,2,0,,,,,1,0,1,0,2,0,2,0,,,,,,,,,,,,,,,,,,,,,,,,,,,,,,,,,,,,,,,,,,,,,,,,,Listen to the question and speak out your answer!,1479.537701845169,None,1479.5193057060242,1481.5363528728485,"Ich möchte dich nicht täuschen, also werde ich dir die Wahrheit sagen.",täuschen,1480.919579744339,None,1485.053112745285,1486.0698399543762,1496.1204636096954,None,1497.537104845047,None,./data/Subject_06/Session_02/Exp_data/2020_Jul_21_1527/rec_QA_run_02_block_001_trial_002.wav,,,,06,02,English,A2,True,False,True,False,False,True,True,True,True,True,True,True,No,2,No,No,No,No,2020_Jul_21_1527,nibs_stage_1,3.2.3,59.94380496951576,
2,0,2,0,,,,,1,0,1,0,3,0,3,0,,,,,,,,,,,,,,,,,,,,,,,,,,,,,,,,,,,,,,,,,,,,,,,,,Listen to the question and speak out your answer!,1500.570620059967,None,1500.5373980998993,1502.5707039833069,Das Radio informiert Autofahrer über Staus.,informiert,1501.9539866447449,None,1505.487441778183,None,1517.1548736095428,1518.1715440750122,1518.5715329647064,None,./data/Subject_06/Session_02/Exp_data/2020_Jul_21_1527/rec_QA_run_02_block_001_trial_003.wav,,,,06,02,English,A2,True,False,True,False,False,True,True,True,True,True,True,True,No,2,No,No,No,No,2020_Jul_21_1527,nibs_stage_1,3.2.3,59.94380496951576,
2,0,2,0,,,,,1,0,1,0,4,0,4,0,,,,,,,,,,,,,,,,,,,,,,,,,,,,,,,,,,,,,,,,,,,,,,,,,Listen to the question and speak out your answer!,1521.6065318584442,None,1521.5881617069244,1523.605141878128,Der Artikel hat uns über die Ursache des Erderwärmung informiert.,informiert,1522.9884576797485,1526.8386249542236,1527.2219886779785,1528.2387030124664,1538.1725656986237,None,1539.589308977127,None,./data/Subject_06/Session_02/Exp_data/2020_Jul_21_1527/rec_QA_run_02_block_001_trial_004.wav,,,,06,02,English,A2,True,False,True,False,False,True,True,True,True,True,True,True,No,2,No,No,No,No,2020_Jul_21_1527,nibs_stage_1,3.2.3,59.94380496951576,
2,0,2,0,,,,,1,0,1,0,5,0,5,0,,,,,,,,,,,,,,,,,,,,,,,,,,,,,,,,,,,,,,,,,,,,,,,,,Listen to the question and speak out your answer!,1542.674320936203,None,1542.655891418457,1544.6729140281677,Sie holte ihre Einkäufe aus dem Korb.,holte,1544.0228645801544,None,1546.956283569336,None,1559.223656654358,1560.2403540611267,1560.6405160427094,None,./data/Subject_06/Session_02/Exp_data/2020_Jul_21_1527/rec_QA_run_02_block_001_trial_005.wav,,,,06,02,English,A2,True,False,True,False,False,True,True,True,True,True,True,True,No,2,No,No,No,No,2020_Jul_21_1527,nibs_stage_1,3.2.3,59.94380496951576,
2,0,2,0,,,,,1,0,1,0,6,0,6,0,,,,,,,,,,,,,,,,,,,,,,,,,,,,,,,,,,,,,,,,,,,,,,,,,Listen to the question and speak out your answer!,1563.6911718845367,None,1563.6570093631744,1565.6906700134277,Das laute Auto meines Nachbarn stört mich jeden Tag.,stört,1565.0406286716461,None,1568.9408366680145,1569.9575650691986,1580.2414245605469,None,1581.6581959724426,None,./data/Subject_06/Session_02/Exp_data/2020_Jul_21_1527/rec_QA_run_02_block_001_trial_006.wav,,,,06,02,English,A2,True,False,True,False,False,True,True,True,True,True,True,True,No,2,No,No,No,No,2020_Jul_21_1527,nibs_stage_1,3.2.3,59.94380496951576,
2,0,2,0,,,,,1,0,1,0,7,0,7,0,,,,,,,,,,,,,,,,,,,,,,,,,,,,,,,,,,,,,,,,,,,,,,,,,Listen to the question and speak out your answer!,1584.726124048233,None,1584.6914389133453,1586.7250909805298,Tim sammelt Briefmarken und Münzen.,sammelt,1586.0750467777252,None,1588.9085276126862,1589.9251809120178,1601.2759146690369,None,1602.6926100254059,None,./data/Subject_06/Session_02/Exp_data/2020_Jul_21_1527/rec_QA_run_02_block_001_trial_007.wav,,,,06,02,English,A2,True,False,True,False,False,True,True,True,True,True,True,True,No,2,No,No,No,No,2020_Jul_21_1527,nibs_stage_1,3.2.3,59.94380496951576,
2,0,2,0,,,,,1,0,1,0,8,0,8,0,,,,,,,,,,,,,,,,,,,,,,,,,,,,,,,,,,,,,,,,,,,,,,,,,Listen to the question and speak out your answer!,1605.7599399089813,None,1605.7425446510315,1607.7596440315247,Manche Politiker wollen den Frieden auf Erden sichern.,sichern,1607.1428136825562,None,1610.7763545513153,1611.7930948734283,1622.3436386585236,None,1623.7605459690094,None,./data/Subject_06/Session_02/Exp_data/2020_Jul_21_1527/rec_QA_run_02_block_001_trial_008.wav,,,,06,02,English,A2,True,False,True,False,False,True,True,True,True,True,True,True,No,2,No,No,No,No,2020_Jul_21_1527,nibs_stage_1,3.2.3,59.94380496951576,
2,0,2,0,,,,,1,0,1,0,9,0,9,0,,,,,,,,,,,,,,,,,,,,,,,,,,,,,,,,,,,,,,,,,,,,,,,,,Listen to the question and speak out your answer!,1626.8106088638306,None,1626.7769982814789,1628.810721874237,Das neue Teammitglied wurde über die Situation informiert.,informiert,1628.1605916023254,1631.8440449237823,1632.2608036994934,1633.2775480747223,1643.361374616623,1644.3781259059906,1644.7781419754028,None,./data/Subject_06/Session_02/Exp_data/2020_Jul_21_1527/rec_QA_run_02_block_001_trial_009.wav,,,,06,02,English,A2,True,False,True,False,False,True,True,True,True,True,True,True,No,2,No,No,No,No,2020_Jul_21_1527,nibs_stage_1,3.2.3,59.94380496951576,
2,0,2,0,,,,,1,0,1,0,10,0,10,0,,,,,,,,,,,,,,,,,,,,,,,,,,,,,,,,,,,,,,,,,,,,,,,,,Listen to the question and speak out your answer!,1647.8457009792328,None,1647.8114039897919,1649.845025062561,"Es ist nicht zulässig, bei der Prüfung Hilfsmittel zu benutzen.",benutzen,1649.2283537387848,1652.8785829544067,1653.2619185447693,None,1664.4291536808014,1665.445944070816,1665.8459389209747,None,./data/Subject_06/Session_02/Exp_data/2020_Jul_21_1527/rec_QA_run_02_block_001_trial_010.wav,,,,06,02,English,A2,True,False,True,False,False,True,True,True,True,True,True,True,No,2,No,No,No,No,2020_Jul_21_1527,nibs_stage_1,3.2.3,59.94380496951576,
2,0,2,0,,,,,1,0,1,0,11,0,11,0,,,,,,,,,,,,,,,,,,,,,,,,,,,,,,,,,,,,,,,,,,,,,,,,,Listen to the question and speak out your answer!,1668.8800840377808,None,1668.845871925354,1670.8795070648193,"Das ist zu spät, ich möchte nach Hause gehen.",gehen,1670.2627956867218,None,1673.429628610611,None,1685.4635996818542,None,1686.880334854126,None,./data/Subject_06/Session_02/Exp_data/2020_Jul_21_1527/rec_QA_run_02_block_001_trial_011.wav,,,,06,02,English,A2,True,False,True,False,False,True,True,True,True,True,True,True,No,2,No,No,No,No,2020_Jul_21_1527,nibs_stage_1,3.2.3,59.94380496951576,
2,0,2,0,,,,,1,0,1,0,12,0,12,0,,,,,,,,,,,,,,,,,,,,,,,,,,,,,,,,,,,,,,,,,,,,,,,,,Listen to the question and speak out your answer!,1689.9139568805695,None,1689.8969447612762,1691.9139330387115,Mani ist ins Kino gegangen und hat sich einen guten Film angesehen.,angesehen,1691.2638986110687,None,1695.8641376495361,None,1706.4647047519684,None,1707.8815069198608,None,./data/Subject_06/Session_02/Exp_data/2020_Jul_21_1527/rec_QA_run_02_block_001_trial_012.wav,,,,06,02,English,A2,True,False,True,False,False,True,True,True,True,True,True,True,No,2,No,No,No,No,2020_Jul_21_1527,nibs_stage_1,3.2.3,59.94380496951576,
2,0,2,0,,,,,1,0,1,0,13,0,13,0,,,,,,,,,,,,,,,,,,,,,,,,,,,,,,,,,,,,,,,,,,,,,,,,,Listen to the question and speak out your answer!,1710.9489269256592,None,1710.9147169589996,1712.9484260082245,"Ein rotes Signal bedeutet, dass ich warten muss.",bedeutet,1712.3320336341858,None,1715.7652287483215,None,1727.5325016975403,None,1728.9492528438568,None,./data/Subject_06/Session_02/Exp_data/2020_Jul_21_1527/rec_QA_run_02_block_001_trial_013.wav,,,,06,02,English,A2,True,False,True,False,False,True,True,True,True,True,True,True,No,2,No,No,No,No,2020_Jul_21_1527,nibs_stage_1,3.2.3,59.94380496951576,
2,0,2,0,,,,,1,0,1,0,14,0,14,0,,,,,,,,,,,,,,,,,,,,,,,,,,,,,,,,,,,,,,,,,,,,,,,,,Listen to the question and speak out your answer!,1731.9834518432617,None,1731.949147939682,1733.9830949306488,Meine Oma hat mir Frühstück gekocht.,gekocht,1733.3663077354431,None,1735.9662415981293,None,1748.5669555664062,1749.5836279392242,1749.983638048172,None,./data/Subject_06/Session_02/Exp_data/2020_Jul_21_1527/rec_QA_run_02_block_001_trial_014.wav,,,,06,02,English,A2,True,False,True,False,False,True,True,True,True,True,True,True,No,2,No,No,No,No,2020_Jul_21_1527,nibs_stage_1,3.2.3,59.94380496951576,
2,0,2,0,,,,,1,0,1,0,15,0,15,0,,,,,,,,,,,,,,,,,,,,,,,,,,,,,,,,,,,,,,,,,,,,,,,,,Listen to the question and speak out your answer!,1753.0184209346771,None,1753.0003407001495,1755.0175700187683,"„Ich heiße Sam“, war der erste Satz, den er in großen Buchstaben schreiben konnte.",schreiben,1754.4005217552185,None,1759.7674887180328,None,1769.6013207435608,None,1771.0180790424347,None,./data/Subject_06/Session_02/Exp_data/2020_Jul_21_1527/rec_QA_run_02_block_001_trial_015.wav,,,,06,02,English,A2,True,False,True,False,False,True,True,True,True,True,True,True,No,2,No,No,No,No,2020_Jul_21_1527,nibs_stage_1,3.2.3,59.94380496951576,
2,0,2,0,,,,,1,0,1,0,16,0,16,0,,,,,,,,,,,,,,,,,,,,,,,,,,,,,,,,,,,,,,,,,,,,,,,,,Listen to the question and speak out your answer!,1774.0856640338898,None,1774.0680208206177,1776.0850138664246,Das juristische Staatsexamen in Deutschland ist schwer zu bestehen.,bestehen,1775.4683556556702,None,1779.8685326576233,1780.8852548599243,1790.6691226959229,None,1792.0859959125519,None,./data/Subject_06/Session_02/Exp_data/2020_Jul_21_1527/rec_QA_run_02_block_001_trial_016.wav,,,,06,02,English,A2,True,False,True,False,False,True,True,True,True,True,True,True,No,2,No,No,No,No,2020_Jul_21_1527,nibs_stage_1,3.2.3,59.94380496951576,
2,0,2,0,,,,,1,0,1,0,17,0,17,0,,,,,,,,,,,,,,,,,,,,,,,,,,,,,,,,,,,,,,,,,,,,,,,,,Listen to the question and speak out your answer!,1795.1542069911957,None,1795.1360847949982,1797.1527788639069,Seine Großmutter kann ganz spannend erzählen.,erzählen,1796.536072731018,1799.1529438495636,1799.5362355709076,None,1811.736912727356,None,1813.1536350250244,None,./data/Subject_06/Session_02/Exp_data/2020_Jul_21_1527/rec_QA_run_02_block_001_trial_017.wav,,,,06,02,English,A2,True,False,True,False,False,True,True,True,True,True,True,True,No,2,No,No,No,No,2020_Jul_21_1527,nibs_stage_1,3.2.3,59.94380496951576,
2,0,2,0,,,,,1,0,1,0,18,0,18,0,,,,,,,,,,,,,,,,,,,,,,,,,,,,,,,,,,,,,,,,,,,,,,,,,Listen to the question and speak out your answer!,1816.188616991043,None,1816.1702246665955,1818.187213897705,Persönliche Daten sollen geheim bleiben.,bleiben,1817.5705115795135,None,1820.4039895534515,None,1832.771256685257,None,1834.1880450248718,None,./data/Subject_06/Session_02/Exp_data/2020_Jul_21_1527/rec_QA_run_02_block_001_trial_018.wav,,,,06,02,English,A2,True,False,True,False,False,True,True,True,True,True,True,True,No,2,No,No,No,No,2020_Jul_21_1527,nibs_stage_1,3.2.3,59.94380496951576,
2,0,2,0,,,,,1,0,1,0,19,0,19,0,,,,,,,,,,,,,,,,,,,,,,,,,,,,,,,,,,,,,,,,,,,,,,,,,Listen to the question and speak out your answer!,1837.2721118927002,None,1837.2379817962646,1839.2717530727386,Die Ausbildung besteht aus mehreren Modulen.,besteht,1838.6216247081757,1841.3717758655548,1841.7884616851807,None,1853.8224215507507,None,1855.2393109798431,None,./data/Subject_06/Session_02/Exp_data/2020_Jul_21_1527/rec_QA_run_02_block_001_trial_019.wav,,,,06,02,English,A2,True,False,True,False,False,True,True,True,True,True,True,True,No,2,No,No,No,No,2020_Jul_21_1527,nibs_stage_1,3.2.3,59.94380496951576,
2,0,2,0,,,,,1,0,1,0,20,0,20,0,,,,,,,,,,,,,,,,,,,,,,,,,,,,,,,,,,,,,,,,,,,,,,,,,Listen to the question and speak out your answer!,1858.3232870101929,None,1858.2890877723694,1860.3227610588074,"Da Elena arbeiten muss, überlässt sie ihre Kinder seiner Mutter.",überlässt,1859.6727306842804,1863.4229228496552,1863.8396067619324,None,1874.8734266757965,None,1876.290442943573,None,./data/Subject_06/Session_02/Exp_data/2020_Jul_21_1527/rec_QA_run_02_block_001_trial_020.wav,,,,06,02,English,A2,True,False,True,False,False,True,True,True,True,True,True,True,No,2,No,No,No,No,2020_Jul_21_1527,nibs_stage_1,3.2.3,59.94380496951576,
2,0,2,0,,,,,1,0,1,0,21,0,21,0,,,,,,,,,,,,,,,,,,,,,,,,,,,,,,,,,,,,,,,,,,,,,,,,,Listen to the question and speak out your answer!,1879.357743024826,None,1879.3402078151703,1881.3571889400482,Der Mörder wollte die Gründe für seine Tat nicht nennen.,nennen,1880.7405016422272,None,1884.1406905651093,None,1895.9412965774536,None,1897.3580658435822,None,./data/Subject_06/Session_02/Exp_data/2020_Jul_21_1527/rec_QA_run_02_block_001_trial_021.wav,,,,06,02,English,A2,True,False,True,False,False,True,True,True,True,True,True,True,No,2,No,No,No,No,2020_Jul_21_1527,nibs_stage_1,3.2.3,59.94380496951576,
2,0,2,0,,,,,1,0,1,0,22,0,22,0,,,,,,,,,,,,,,,,,,,,,,,,,,,,,,,,,,,,,,,,,,,,,,,,,Listen to the question and speak out your answer!,1900.3921580314636,None,1900.3579580783844,1902.3916199207306,Junge Leute machen gerne Partys.,machen,1901.77494764328,None,1904.6084825992584,None,1916.9758086204529,None,1918.3924629688263,None,./data/Subject_06/Session_02/Exp_data/2020_Jul_21_1527/rec_QA_run_02_block_001_trial_022.wav,,,,06,02,English,A2,True,False,True,False,False,True,True,True,True,True,True,True,No,2,No,No,No,No,2020_Jul_21_1527,nibs_stage_1,3.2.3,59.94380496951576,
2,0,2,0,,,,,1,0,1,0,23,0,23,0,,,,,,,,,,,,,,,,,,,,,,,,,,,,,,,,,,,,,,,,,,,,,,,,,Listen to the question and speak out your answer!,1921.409954071045,None,1921.375732421875,1923.4093980789185,"Nach einem Match hat sie keine Stimme mehr,  weil sie so laut schreit.",schreit,1922.759271621704,None,1927.0262477397919,None,1937.960700750351,None,1939.377074956894,None,./data/Subject_06/Session_02/Exp_data/2020_Jul_21_1527/rec_QA_run_02_block_001_trial_023.wav,,,,06,02,English,A2,True,False,True,False,False,True,True,True,True,True,True,True,No,2,No,No,No,No,2020_Jul_21_1527,nibs_stage_1,3.2.3,59.94380496951576,
2,0,2,0,,,,,1,0,1,0,24,0,24,0,,,,,,,,,,,,,,,,,,,,,,,,,,,,,,,,,,,,,,,,,,,,,,,,,Listen to the question and speak out your answer!,1942.5452349185944,None,1942.5270760059357,1944.5438299179077,In der Küche steht noch das schumutzige Geschirr vom Frühstück.,steht,1943.9271206855774,None,1947.8606646060944,None,1959.1279296875,None,1960.5445940494537,None,./data/Subject_06/Session_02/Exp_data/2020_Jul_21_1527/rec_QA_run_02_block_001_trial_024.wav,,,,06,02,English,A2,True,False,True,False,False,True,True,True,True,True,True,True,No,2,No,No,No,No,2020_Jul_21_1527,nibs_stage_1,3.2.3,59.94380496951576,
2,0,2,0,,,,,1,0,1,0,,,,,,,,,,,,,,,,,,,,,,,,,,,,,,,,,,,,,,,,,,1964.594929933548,None,,,,,,,,,,,,,,,,,,,,,,,,,,,,,06,02,English,A2,True,False,True,False,False,True,True,True,True,True,True,True,No,2,No,No,No,No,2020_Jul_21_1527,nibs_stage_1,3.2.3,59.94380496951576,
2,0,2,0,,,,,,,,,,,,,,,,,,,,,,,,,,,,,,,,,,,,,,,,,,,,,,,,,,,,,,,,,,,,,,,,,,,,,,,,,,,,,Please remain seated until further instruction via the earphone.,57.64510202407837,None,06,02,English,A2,True,False,True,False,False,True,True,True,True,True,True,True,No,2,No,No,No,No,2020_Jul_21_1527,nibs_stage_1,3.2.3,59.94380496951576,
