run.thisRepN,run.thisTrialN,run.thisN,run.thisIndex,QA_block.thisRepN,QA_block.thisTrialN,QA_block.thisN,QA_block.thisIndex,QA_trial.thisRepN,QA_trial.thisTrialN,QA_trial.thisN,QA_trial.thisIndex,fade_in_text.text,fade_in_text.started,fade_in_text.stopped,RS_intro_title.started,RS_intro_title.stopped,RS_intro_text.text,RS_intro_text.started,RS_intro_text.stopped,RS_intro_audio.started,RS_intro_audio.stopped,RS_rec_text.text,RS_rec_text.started,RS_rec_text.stopped,Pause_cont.started,Pause_cont.stopped,QA_intro_title.started,QA_intro_title.stopped,QA_intro_text.text,QA_intro_text.started,QA_intro_text.stopped,QA_intro_audio.started,QA_intro_audio.stopped,QA_intro_cont.started,QA_intro_cont.stopped,QA_rec_text.text,QA_rec_text.started,QA_rec_text.stopped,QA_rec_beep_hint.started,QA_rec_beep_hint.stopped,QA_rec_question.sen_text,QA_rec_question.cen_text,QA_rec_question.started,QA_rec_question.stopped,QA_rec_beep_start.started,QA_rec_beep_start.stopped,QA_rec_beep_end.started,QA_rec_beep_end.stopped,QA_rec_break.started,QA_rec_break.stopped,filename,participant,session,First language,German level,Full_screen,Instruction,Intro,Artifact,Cali_pre,Fade_in_out,Artifact_within,Resting_State,QA,Pause,Cali_post,End,Breakpoint_Cali_pre_trial,Breakpoint_Run,Breakpoint_RS_block,Breakpoint_QA_block,Breakpoint_QA_trial,Breakpoint_Cali_post_trial,date,expName,psychopyVersion,frameRate,
1,0,1,0,0,0,0,0,0,0,0,0,Please remain seated until further instruction via the earphone.,70.15646696090698,None,279.5674498081207,None," - Task: Keep seated and relaxed with either      
             opening or closing eyes                  
 - Beep sound with decreasing pitch: Block finish 
",279.5674498081207,None,279.5514820098877,None,"Please keep relaxed and open your eyes.
Note: Blinking is allowed.",302.5853068828583,482.59515595436096,485.97818779945374,None,502.479660987854,542.4814918041229," - Task: Listen to the question& Speak out answer 
 - Melodious beep sound: Trial start              
 - Silent sound (blank): censored word            
 - Beep sound with increasing pitch: Rec. start   
 - Beep sound with decreasing pitch: Rec. finish  
",502.479660987854,542.4814918041229,502.46327595710756,None,541.8479828834534,None,Listen to the question and speak out your answer!,546.682012796402,None,546.6824962139129,548.6819448471069,"Mutters Einkäufe sind so schwer, deshalb bittet sie Jon, die Tasche zu tragen.",tragen,548.0650589942932,552.8821089267731,553.2822251796722,None,563.2658579826355,564.2659289836884,564.6660048961639,565.6658837795258,./data/Subject_10/Session_00/Exp_data/2020_Aug_03_1152/rec_QA_run_01_block_000_trial_000.wav,10,00,English,A2,True,False,True,False,False,True,True,True,True,True,True,True,No,1,No,No,No,No,2020_Aug_03_1152,nibs_stage_1,3.2.3,59.98220971372512,
1,0,1,0,0,0,0,0,1,0,1,0,,,,,,,,,,,,,,,,,,,,,,,,,Listen to the question and speak out your answer!,567.7491939067841,None,567.7333203792572,569.7326409816742,Ich beendete meine Arbeit und erhielt eine neue Aufgabe.,beendete,569.1326151371002,None,573.2495031833648,574.249452829361,584.333408164978,585.3334670066833,585.7168288230896,586.7168889045715,./data/Subject_10/Session_00/Exp_data/2020_Aug_03_1152/rec_QA_run_01_block_000_trial_001.wav,10,00,English,A2,True,False,True,False,False,True,True,True,True,True,True,True,No,1,No,No,No,No,2020_Aug_03_1152,nibs_stage_1,3.2.3,59.98220971372512,
1,0,1,0,0,0,0,0,2,0,2,0,,,,,,,,,,,,,,,,,,,,,,,,,Listen to the question and speak out your answer!,588.8002989292145,None,588.7842883110046,590.7837479114532,"Wir entschieden uns dafür, mit dem Flugzeug nach Stockholm zu fliegen.",fliegen,590.1670420646667,None,594.8007581710815,None,605.3678391456604,None,606.7680478096008,607.7679359912872,./data/Subject_10/Session_00/Exp_data/2020_Aug_03_1152/rec_QA_run_01_block_000_trial_002.wav,10,00,English,A2,True,False,True,False,False,True,True,True,True,True,True,True,No,1,No,No,No,No,2020_Aug_03_1152,nibs_stage_1,3.2.3,59.98220971372512,
1,0,1,0,0,0,0,0,3,0,3,0,,,,,,,,,,,,,,,,,,,,,,,,,Listen to the question and speak out your answer!,609.8352558612823,None,609.8353823661804,611.8348379135132,Wir sind mit dem Jeep auf Safari in Kenia gefahren.,gefahren,611.218142080307,614.5683169364929,614.9851320266723,None,626.419127035141,None,627.8190128803253,628.8189787864685,./data/Subject_10/Session_00/Exp_data/2020_Aug_03_1152/rec_QA_run_01_block_000_trial_003.wav,10,00,English,A2,True,False,True,False,False,True,True,True,True,True,True,True,No,1,No,No,No,No,2020_Aug_03_1152,nibs_stage_1,3.2.3,59.98220971372512,
1,0,1,0,0,0,0,0,4,0,4,0,,,,,,,,,,,,,,,,,,,,,,,,,Listen to the question and speak out your answer!,630.8858988285065,None,630.8696571826935,632.8692679405212,In der Morgen wasche ich mein Gesicht.,wasche,632.2532871246337,None,634.9026270389556,None,647.4534841060638,648.4534227848053,648.8534758090973,649.8535048961639,./data/Subject_10/Session_00/Exp_data/2020_Aug_03_1152/rec_QA_run_01_block_000_trial_004.wav,10,00,English,A2,True,False,True,False,False,True,True,True,True,True,True,True,No,1,No,No,No,No,2020_Aug_03_1152,nibs_stage_1,3.2.3,59.98220971372512,
1,0,1,0,0,0,0,0,5,0,5,0,,,,,,,,,,,,,,,,,,,,,,,,,Listen to the question and speak out your answer!,651.9212958812714,None,651.9041651248931,653.9036729335785,Alle Passagiere müssen an der Endstation aus dem Zug aussteigen.,aussteigen,653.303662109375,657.2374789714813,657.6539061546325,None,668.5047531604766,None,669.9047617912292,670.9048118591309,./data/Subject_10/Session_00/Exp_data/2020_Aug_03_1152/rec_QA_run_01_block_000_trial_005.wav,10,00,English,A2,True,False,True,False,False,True,True,True,True,True,True,True,No,1,No,No,No,No,2020_Aug_03_1152,nibs_stage_1,3.2.3,59.98220971372512,
1,0,1,0,0,0,0,0,6,0,6,0,,,,,,,,,,,,,,,,,,,,,,,,,Listen to the question and speak out your answer!,672.9549739360809,None,672.9388180732726,674.9550318717957,Sie benutzt die Arbeit als Vorwand.,benutzt,674.321553993225,None,677.0218611240387,None,689.5224910259246,690.5225169658661,690.922525882721,691.9225249290466,./data/Subject_10/Session_00/Exp_data/2020_Aug_03_1152/rec_QA_run_01_block_000_trial_006.wav,10,00,English,A2,True,False,True,False,False,True,True,True,True,True,True,True,No,1,No,No,No,No,2020_Aug_03_1152,nibs_stage_1,3.2.3,59.98220971372512,
1,0,1,0,0,0,0,0,7,0,7,0,,,,,,,,,,,,,,,,,,,,,,,,,Listen to the question and speak out your answer!,693.9893028736115,None,693.973249053955,695.9727699756622,Ich entschuldige bitte meine Verspätung.,entschuldige,695.372748184204,697.6895279884338,698.089556980133,None,710.556872177124,None,711.9571928977966,712.9572517871857,./data/Subject_10/Session_00/Exp_data/2020_Aug_03_1152/rec_QA_run_01_block_000_trial_007.wav,10,00,English,A2,True,False,True,False,False,True,True,True,True,True,True,True,No,1,No,No,No,No,2020_Aug_03_1152,nibs_stage_1,3.2.3,59.98220971372512,
1,0,1,0,0,0,0,0,8,0,8,0,,,,,,,,,,,,,,,,,,,,,,,,,Listen to the question and speak out your answer!,715.0243699550629,None,715.007917022705,717.0238637924194,Die Polizei sammelte alle verfügbaren Informationen.,sammelte,716.4071000099182,720.0908918380737,720.490927028656,None,731.608039188385,732.6083028316498,733.0080699920654,734.0080788135529,./data/Subject_10/Session_00/Exp_data/2020_Aug_03_1152/rec_QA_run_01_block_000_trial_008.wav,10,00,English,A2,True,False,True,False,False,True,True,True,True,True,True,True,No,1,No,No,No,No,2020_Aug_03_1152,nibs_stage_1,3.2.3,59.98220971372512,
1,0,1,0,0,0,0,0,9,0,9,0,,,,,,,,,,,,,,,,,,,,,,,,,Listen to the question and speak out your answer!,736.0582029819489,None,736.0420850276946,738.0416598320007,Die Näherin hat ein Kleid für den Abschlussball genäht.,genäht,737.4248581409454,740.525043964386,740.925146150589,741.9252548217773,752.6258020877838,None,754.025759935379,755.0258679389954,./data/Subject_10/Session_00/Exp_data/2020_Aug_03_1152/rec_QA_run_01_block_000_trial_009.wav,10,00,English,A2,True,False,True,False,False,True,True,True,True,True,True,True,No,1,No,No,No,No,2020_Aug_03_1152,nibs_stage_1,3.2.3,59.98220971372512,
1,0,1,0,0,0,0,0,10,0,10,0,,,,,,,,,,,,,,,,,,,,,,,,,Listen to the question and speak out your answer!,757.0927298069,None,757.076546049118,759.0760698318481,Die Mieter wollen die Vertragsbedingungen ändern.,ändern,758.4594061851501,None,761.5762751579284,762.5762498378754,773.6601269721984,None,775.0602939128876,776.0605618953705,./data/Subject_10/Session_00/Exp_data/2020_Aug_03_1152/rec_QA_run_01_block_000_trial_010.wav,10,00,English,A2,True,False,True,False,False,True,True,True,True,True,True,True,No,1,No,No,No,No,2020_Aug_03_1152,nibs_stage_1,3.2.3,59.98220971372512,
1,0,1,0,0,0,0,0,11,0,11,0,,,,,,,,,,,,,,,,,,,,,,,,,Listen to the question and speak out your answer!,778.143739938736,None,778.1276532173156,780.1272079944611,"Ich berichtete der Polizei alles, was ich gesehen hatte.",berichtete,779.5106931209564,782.9607598781586,783.3606861114501,None,794.71126704216,None,796.1113448143005,797.111410856247,./data/Subject_10/Session_00/Exp_data/2020_Aug_03_1152/rec_QA_run_01_block_000_trial_011.wav,10,00,English,A2,True,False,True,False,False,True,True,True,True,True,True,True,No,1,No,No,No,No,2020_Aug_03_1152,nibs_stage_1,3.2.3,59.98220971372512,
1,0,1,0,0,0,0,0,12,0,12,0,,,,,,,,,,,,,,,,,,,,,,,,,Listen to the question and speak out your answer!,799.178200006485,None,799.1620942115783,801.1617889404297,"Im Sommer brauchen wir ein Moskitonetz, damit wir nicht gestochen werden.",brauchen,800.544920015335,804.761962890625,805.1784391880035,806.1785228252411,815.7455111026763,None,817.1621959209442,None,./data/Subject_10/Session_00/Exp_data/2020_Aug_03_1152/rec_QA_run_01_block_000_trial_012.wav,10,00,English,A2,True,False,True,False,False,True,True,True,True,True,True,True,No,1,No,No,No,No,2020_Aug_03_1152,nibs_stage_1,3.2.3,59.98220971372512,
1,0,1,0,0,0,0,0,13,0,13,0,,,,,,,,,,,,,,,,,,,,,,,,,Listen to the question and speak out your answer!,820.2125968933105,None,820.1962960720061,822.212474822998,"Florian habe so lange Beine, deshalb trage er nur lange Hosen.",trage,821.5957921028137,None,826.2627001285553,None,836.7965929985046,None,838.2133278846741,None,./data/Subject_10/Session_00/Exp_data/2020_Aug_03_1152/rec_QA_run_01_block_000_trial_013.wav,10,00,English,A2,True,False,True,False,False,True,True,True,True,True,True,True,No,1,No,No,No,No,2020_Aug_03_1152,nibs_stage_1,3.2.3,59.98220971372512,
1,0,1,0,0,0,0,0,14,0,14,0,,,,,,,,,,,,,,,,,,,,,,,,,Listen to the question and speak out your answer!,841.2639698982239,None,841.2473522186278,843.2635798454285,"Pinguine bewohnen die Antarktis, wie auch Robben und große Seelöwen.",bewohnen,842.6135621547699,None,847.6138191699981,None,857.814347076416,858.8310458660126,859.2311828136444,None,./data/Subject_10/Session_00/Exp_data/2020_Aug_03_1152/rec_QA_run_01_block_000_trial_014.wav,10,00,English,A2,True,False,True,False,False,True,True,True,True,True,True,True,No,1,No,No,No,No,2020_Aug_03_1152,nibs_stage_1,3.2.3,59.98220971372512,
1,0,1,0,0,0,0,0,15,0,15,0,,,,,,,,,,,,,,,,,,,,,,,,,Listen to the question and speak out your answer!,862.281564950943,None,862.2651170253753,864.2814300060272,Ich kann das Buch nirgends finden.,finden,863.6646500110626,None,865.931429195404,None,878.865425157547,None,880.2821588516235,None,./data/Subject_10/Session_00/Exp_data/2020_Aug_03_1152/rec_QA_run_01_block_000_trial_015.wav,10,00,English,A2,True,False,True,False,False,True,True,True,True,True,True,True,No,1,No,No,No,No,2020_Aug_03_1152,nibs_stage_1,3.2.3,59.98220971372512,
1,0,1,0,0,0,0,0,16,0,16,0,,,,,,,,,,,,,,,,,,,,,,,,,Listen to the question and speak out your answer!,883.332850933075,None,883.3162401676177,885.3324558734894,"Mein Handy ist schon eingeschaltet, so dass Sie mich jederzeit anrufen können.",anrufen,884.7157481193542,None,889.6825840950012,None,899.9166541576385,None,901.333349943161,None,./data/Subject_10/Session_00/Exp_data/2020_Aug_03_1152/rec_QA_run_01_block_000_trial_016.wav,10,00,English,A2,True,False,True,False,False,True,True,True,True,True,True,True,No,1,No,No,No,No,2020_Aug_03_1152,nibs_stage_1,3.2.3,59.98220971372512,
1,0,1,0,0,0,0,0,17,0,17,0,,,,,,,,,,,,,,,,,,,,,,,,,Listen to the question and speak out your answer!,904.3836498260498,None,904.367399072647,906.3837049007416,Er legte das Buch auf den Tisch.,legte,905.7668459892272,907.8169589042664,908.2003071784973,None,920.9675510406494,921.9843609333038,922.3843808174133,None,./data/Subject_10/Session_00/Exp_data/2020_Aug_03_1152/rec_QA_run_01_block_000_trial_017.wav,10,00,English,A2,True,False,True,False,False,True,True,True,True,True,True,True,No,1,No,No,No,No,2020_Aug_03_1152,nibs_stage_1,3.2.3,59.98220971372512,
1,0,1,0,0,0,0,0,18,0,18,0,,,,,,,,,,,,,,,,,,,,,,,,,Listen to the question and speak out your answer!,925.4512059688568,None,925.4183472156524,927.4513018131256,Toni fliegt mit dem Flugzeug nach.,fliegt,926.8346100330352,None,929.5680811882019,930.5848338603973,942.035403060913,None,943.4522409439087,None,./data/Subject_10/Session_00/Exp_data/2020_Aug_03_1152/rec_QA_run_01_block_000_trial_018.wav,10,00,English,A2,True,False,True,False,False,True,True,True,True,True,True,True,No,1,No,No,No,No,2020_Aug_03_1152,nibs_stage_1,3.2.3,59.98220971372512,
1,0,1,0,0,0,0,0,19,0,19,0,,,,,,,,,,,,,,,,,,,,,,,,,Listen to the question and speak out your answer!,946.4862518310547,None,946.4528490066527,948.4857218265533,Ich kann endlich den Namen dieser französischen Stadt aussprechen.,aussprechen,947.8690200328826,951.4859089851379,951.8692310333251,None,963.06984500885,None,964.4865689277649,None,./data/Subject_10/Session_00/Exp_data/2020_Aug_03_1152/rec_QA_run_01_block_000_trial_019.wav,10,00,English,A2,True,False,True,False,False,True,True,True,True,True,True,True,No,1,No,No,No,No,2020_Aug_03_1152,nibs_stage_1,3.2.3,59.98220971372512,
1,0,1,0,0,0,0,0,20,0,20,0,,,,,,,,,,,,,,,,,,,,,,,,,Listen to the question and speak out your answer!,967.5201878547668,None,967.4872981071471,969.5202219486237,Fortschritt und Naturschutz sollten kein Gegensatz sein.,sein,968.9034631729126,None,972.6703281879425,None,984.1042511940002,985.1210408210754,985.5210587978363,None,./data/Subject_10/Session_00/Exp_data/2020_Aug_03_1152/rec_QA_run_01_block_000_trial_020.wav,10,00,English,A2,True,False,True,False,False,True,True,True,True,True,True,True,No,1,No,No,No,No,2020_Aug_03_1152,nibs_stage_1,3.2.3,59.98220971372512,
1,0,1,0,0,0,0,0,21,0,21,0,,,,,,,,,,,,,,,,,,,,,,,,,Listen to the question and speak out your answer!,988.5379889011383,None,988.5217851161956,990.5379300117493,Das Auto wurde in Deutschland hergestellt.,hergestellt,989.9213700771331,992.4713909626007,992.8547211170196,None,1005.1221011161804,None,1006.5387690067291,None,./data/Subject_10/Session_00/Exp_data/2020_Aug_03_1152/rec_QA_run_01_block_000_trial_021.wav,10,00,English,A2,True,False,True,False,False,True,True,True,True,True,True,True,No,1,No,No,No,No,2020_Aug_03_1152,nibs_stage_1,3.2.3,59.98220971372512,
1,0,1,0,0,0,0,0,22,0,22,0,,,,,,,,,,,,,,,,,,,,,,,,,Listen to the question and speak out your answer!,1009.5906858444214,None,1009.5728310108184,1011.589015007019,Der Sturm entlaubte alle Bäume in unserem Garten.,entlaubte,1010.9723501682281,1014.1891579627991,1014.5391929626464,None,1026.1732380867004,1027.189829826355,1027.589873790741,None,./data/Subject_10/Session_00/Exp_data/2020_Aug_03_1152/rec_QA_run_01_block_000_trial_022.wav,10,00,English,A2,True,False,True,False,False,True,True,True,True,True,True,True,No,1,No,No,No,No,2020_Aug_03_1152,nibs_stage_1,3.2.3,59.98220971372512,
1,0,1,0,0,0,0,0,23,0,23,0,,,,,,,,,,,,,,,,,,,,,,,,,Listen to the question and speak out your answer!,1030.6567928791046,None,1030.6239210128783,1032.6568257808685,Ohne das Glas kann ich nicht lesen.,lesen,1032.0401511669158,1034.1571447849274,1034.5068979740142,None,1047.2408810138702,1048.2577238082886,1048.657535791397,None,./data/Subject_10/Session_00/Exp_data/2020_Aug_03_1152/rec_QA_run_01_block_000_trial_023.wav,10,00,English,A2,True,False,True,False,False,True,True,True,True,True,True,True,No,1,No,No,No,No,2020_Aug_03_1152,nibs_stage_1,3.2.3,59.98220971372512,
1,0,1,0,0,0,0,0,24,0,24,0,,,,,,,,,,,,,,,,,,,,,,,,,Listen to the question and speak out your answer!,1051.674754858017,None,1051.6583510398864,1053.674549818039,Die Lampe hängt über dem Bett.,hängt,1053.0245230674743,None,1055.2913029670715,None,1068.2253129959106,1069.2420489788055,1069.6420199871063,None,./data/Subject_10/Session_00/Exp_data/2020_Aug_03_1152/rec_QA_run_01_block_000_trial_024.wav,10,00,English,A2,True,False,True,False,False,True,True,True,True,True,True,True,No,1,No,No,No,No,2020_Aug_03_1152,nibs_stage_1,3.2.3,59.98220971372512,
1,0,1,0,0,0,0,0,,,,,,,,,,,,,,,,,,1073.6922838687897,None,,,,,,,,,,,,,,,,,,,,,,,,,,10,00,English,A2,True,False,True,False,False,True,True,True,True,True,True,True,No,1,No,No,No,No,2020_Aug_03_1152,nibs_stage_1,3.2.3,59.98220971372512,
1,0,1,0,1,0,1,0,0,0,0,0,,,,,,,,,,,,,,,,,,,,,,,,,Listen to the question and speak out your answer!,1103.8779850006104,None,1103.861883020401,1105.9106040000916,Ein Regenbogen besteht aus vielen Farben.,besteht,1105.2605801105499,1107.9773848056793,1108.3274031162262,None,1120.4613881587982,1121.4780158996582,1121.8781077861786,None,./data/Subject_10/Session_00/Exp_data/2020_Aug_03_1152/rec_QA_run_01_block_001_trial_000.wav,10,00,English,A2,True,False,True,False,False,True,True,True,True,True,True,True,No,1,No,No,No,No,2020_Aug_03_1152,nibs_stage_1,3.2.3,59.98220971372512,
1,0,1,0,1,0,1,0,1,0,1,0,,,,,,,,,,,,,,,,,,,,,,,,,Listen to the question and speak out your answer!,1124.9455289840698,None,1124.9121650218963,1126.945307970047,"Entschuldigung, können Sie mir ein Taxi rufen?",rufen,1126.2949440956115,None,1129.4951751708984,None,1141.496105003357,None,1142.9126918315887,None,./data/Subject_10/Session_00/Exp_data/2020_Aug_03_1152/rec_QA_run_01_block_001_trial_001.wav,10,00,English,A2,True,False,True,False,False,True,True,True,True,True,True,True,No,1,No,No,No,No,2020_Aug_03_1152,nibs_stage_1,3.2.3,59.98220971372512,
1,0,1,0,1,0,1,0,2,0,2,0,,,,,,,,,,,,,,,,,,,,,,,,,Listen to the question and speak out your answer!,1145.9797058105469,None,1145.946645116806,1147.9795048236847,Biologie gehört zu den Natur-Wissenschaften.,gehört,1147.3628170967102,1150.3129777908325,1150.6963191509246,None,1162.5638041973114,None,1163.9803819656372,None,./data/Subject_10/Session_00/Exp_data/2020_Aug_03_1152/rec_QA_run_01_block_001_trial_002.wav,10,00,English,A2,True,False,True,False,False,True,True,True,True,True,True,True,No,1,No,No,No,No,2020_Aug_03_1152,nibs_stage_1,3.2.3,59.98220971372512,
1,0,1,0,1,0,1,0,3,0,3,0,,,,,,,,,,,,,,,,,,,,,,,,,Listen to the question and speak out your answer!,1166.9975519180298,None,1166.9644868850708,1168.9974420070648,Persönliche Daten sollen geheim bleiben.,bleiben,1168.3806920528411,None,1171.2141640663147,None,1183.5814300060272,None,1184.9981789588928,None,./data/Subject_10/Session_00/Exp_data/2020_Aug_03_1152/rec_QA_run_01_block_001_trial_003.wav,10,00,English,A2,True,False,True,False,False,True,True,True,True,True,True,True,No,1,No,No,No,No,2020_Aug_03_1152,nibs_stage_1,3.2.3,59.98220971372512,
1,0,1,0,1,0,1,0,4,0,4,0,,,,,,,,,,,,,,,,,,,,,,,,,Listen to the question and speak out your answer!,1188.0317499637604,None,1187.9989000320434,1190.0319349765778,Sie besichtigen die Sehenswürdigkeiten.,besichtigen,1189.3817260742187,1191.8318560123444,1192.248553085327,None,1204.5992491722106,None,1206.01602101326,None,./data/Subject_10/Session_00/Exp_data/2020_Aug_03_1152/rec_QA_run_01_block_001_trial_004.wav,10,00,English,A2,True,False,True,False,False,True,True,True,True,True,True,True,No,1,No,No,No,No,2020_Aug_03_1152,nibs_stage_1,3.2.3,59.98220971372512,
1,0,1,0,1,0,1,0,5,0,5,0,,,,,,,,,,,,,,,,,,,,,,,,,Listen to the question and speak out your answer!,1209.0836157798767,None,1209.0667063236235,1211.0828669071198,"Die Brille bekommst du beim Optiker, dann kannst du wieder perfekt sehen.",sehen,1210.4662681102752,None,1214.899692106247,None,1225.6673090934753,1226.6838738918304,1227.0837438106537,None,./data/Subject_10/Session_00/Exp_data/2020_Aug_03_1152/rec_QA_run_01_block_001_trial_005.wav,10,00,English,A2,True,False,True,False,False,True,True,True,True,True,True,True,No,1,No,No,No,No,2020_Aug_03_1152,nibs_stage_1,3.2.3,59.98220971372512,
1,0,1,0,1,0,1,0,6,0,6,0,,,,,,,,,,,,,,,,,,,,,,,,,Listen to the question and speak out your answer!,1230.1022748947144,None,1230.0846551418304,1232.1007208824158,Der Autohändler hat auf der Messe zehn Sportwagen eingekauft.,eingekauft,1231.4839990615844,1235.2675228118896,1235.6508720397949,1236.6675119400024,1246.6848061561584,None,1248.1015858650208,None,./data/Subject_10/Session_00/Exp_data/2020_Aug_03_1152/rec_QA_run_01_block_001_trial_006.wav,10,00,English,A2,True,False,True,False,False,True,True,True,True,True,True,True,No,1,No,No,No,No,2020_Aug_03_1152,nibs_stage_1,3.2.3,59.98220971372512,
1,0,1,0,1,0,1,0,7,0,7,0,,,,,,,,,,,,,,,,,,,,,,,,,Listen to the question and speak out your answer!,1251.153345823288,None,1251.135586118698,1253.1518819332123,Ich lese gerne ein Buch vor dem Schlafengehen.,lese,1252.5351200580596,1255.2852540016174,1255.6686201572418,None,1267.7359121322631,1268.7525877952576,1269.1526818275452,None,./data/Subject_10/Session_00/Exp_data/2020_Aug_03_1152/rec_QA_run_01_block_001_trial_007.wav,10,00,English,A2,True,False,True,False,False,True,True,True,True,True,True,True,No,1,No,No,No,No,2020_Aug_03_1152,nibs_stage_1,3.2.3,59.98220971372512,
1,0,1,0,1,0,1,0,8,0,8,0,,,,,,,,,,,,,,,,,,,,,,,,,Listen to the question and speak out your answer!,1272.219789981842,None,1272.2034043312071,1274.2196049690247,Wir sollen großen Wert auf die Sparsamkeit beim Wasser legen.,legen,1273.6029081821441,1277.2864928245544,1277.6697049617767,None,1288.7703810214996,None,1290.1871268749237,1291.220491886139,./data/Subject_10/Session_00/Exp_data/2020_Aug_03_1152/rec_QA_run_01_block_001_trial_008.wav,10,00,English,A2,True,False,True,False,False,True,True,True,True,True,True,True,No,1,No,No,No,No,2020_Aug_03_1152,nibs_stage_1,3.2.3,59.98220971372512,
1,0,1,0,1,0,1,0,9,0,9,0,,,,,,,,,,,,,,,,,,,,,,,,,Listen to the question and speak out your answer!,1293.2708280086517,None,1293.2378259181976,1295.2707297801971,Sie hat den Kuchen in einer runden Form gebacken.,gebacken,1294.6206989765167,1297.4709417819977,1297.8874919891357,None,1309.8215311050415,1310.8381497859955,1311.2382409572601,None,./data/Subject_10/Session_00/Exp_data/2020_Aug_03_1152/rec_QA_run_01_block_001_trial_009.wav,10,00,English,A2,True,False,True,False,False,True,True,True,True,True,True,True,No,1,No,No,No,No,2020_Aug_03_1152,nibs_stage_1,3.2.3,59.98220971372512,
1,0,1,0,1,0,1,0,10,0,10,0,,,,,,,,,,,,,,,,,,,,,,,,,Listen to the question and speak out your answer!,1314.2893328666687,None,1314.2555480480194,1316.2885208129883,Wollen wir morgen zu Hause bleiben oder uns einen Film im Kino ansehen?,ansehen,1315.672111082077,None,1320.371976184845,None,1330.87266998291,1331.8893909454346,1332.2895708084106,None,./data/Subject_10/Session_00/Exp_data/2020_Aug_03_1152/rec_QA_run_01_block_001_trial_010.wav,10,00,English,A2,True,False,True,False,False,True,True,True,True,True,True,True,No,1,No,No,No,No,2020_Aug_03_1152,nibs_stage_1,3.2.3,59.98220971372512,
1,0,1,0,1,0,1,0,11,0,11,0,,,,,,,,,,,,,,,,,,,,,,,,,Listen to the question and speak out your answer!,1335.323059797287,None,1335.2902101039886,1337.3229639530182,"Ein Bauer hält auf seinem Tiere wie Kühe, Hühner oder Schweine.",hält,1336.7065070152282,None,1341.2398581981658,None,1351.907190132141,None,1353.323835849762,None,./data/Subject_10/Session_00/Exp_data/2020_Aug_03_1152/rec_QA_run_01_block_001_trial_011.wav,10,00,English,A2,True,False,True,False,False,True,True,True,True,True,True,True,No,1,No,No,No,No,2020_Aug_03_1152,nibs_stage_1,3.2.3,59.98220971372512,
1,0,1,0,1,0,1,0,12,0,12,0,,,,,,,,,,,,,,,,,,,,,,,,,Listen to the question and speak out your answer!,1356.3574068546295,None,1356.3245950698852,1358.3574419021606,Leo ist schon zur Arbeit gegangen.,gegangen,1357.7074339866638,None,1360.2408581256866,None,1372.9081969738006,None,1374.3250148296356,None,./data/Subject_10/Session_00/Exp_data/2020_Aug_03_1152/rec_QA_run_01_block_001_trial_012.wav,10,00,English,A2,True,False,True,False,False,True,True,True,True,True,True,True,No,1,No,No,No,No,2020_Aug_03_1152,nibs_stage_1,3.2.3,59.98220971372512,
1,0,1,0,1,0,1,0,13,0,13,0,,,,,,,,,,,,,,,,,,,,,,,,,Listen to the question and speak out your answer!,1377.3933639526367,None,1377.3756903648375,1379.3918697834015,"Ich musste meine Mitgliedschaft kündigen, weil sie zu teuer war.",kündigen,1378.7418320655822,None,1382.7420471191406,None,1393.9426770687103,None,1395.3593068122864,None,./data/Subject_10/Session_00/Exp_data/2020_Aug_03_1152/rec_QA_run_01_block_001_trial_013.wav,10,00,English,A2,True,False,True,False,False,True,True,True,True,True,True,True,No,1,No,No,No,No,2020_Aug_03_1152,nibs_stage_1,3.2.3,59.98220971372512,
1,0,1,0,1,0,1,0,14,0,14,0,,,,,,,,,,,,,,,,,,,,,,,,,Listen to the question and speak out your answer!,1398.4263319969177,None,1398.393441057205,1400.4263207912445,"Seine Freunde können seinen Worten nicht trauen, weil er immer lügt.",lügt,1399.776329088211,1403.6598269939423,1404.0765409946441,None,1414.9771070957183,None,1416.3938558101654,None,./data/Subject_10/Session_00/Exp_data/2020_Aug_03_1152/rec_QA_run_01_block_001_trial_014.wav,10,00,English,A2,True,False,True,False,False,True,True,True,True,True,True,True,No,1,No,No,No,No,2020_Aug_03_1152,nibs_stage_1,3.2.3,59.98220971372512,
1,0,1,0,1,0,1,0,15,0,15,0,,,,,,,,,,,,,,,,,,,,,,,,,Listen to the question and speak out your answer!,1419.4606919288635,None,1419.4279101848601,1421.46093583107,"Der Arzt wollte ihm verwehren, seinen Vater zu besuchen.",besuchen,1420.8440711975097,1424.3942799568176,1424.777625131607,None,1436.044891166687,None,1437.4616129398346,None,./data/Subject_10/Session_00/Exp_data/2020_Aug_03_1152/rec_QA_run_01_block_001_trial_015.wav,10,00,English,A2,True,False,True,False,False,True,True,True,True,True,True,True,No,1,No,No,No,No,2020_Aug_03_1152,nibs_stage_1,3.2.3,59.98220971372512,
1,0,1,0,1,0,1,0,16,0,16,0,,,,,,,,,,,,,,,,,,,,,,,,,Listen to the question and speak out your answer!,1440.4957149028778,None,1440.4623700141906,1442.495204925537,Diese Grafik hat die Ergebnisse deutlich dargestellt.,dargestellt,1441.878514099121,1445.0958259105682,1445.4788980960845,1446.4954578876495,1457.0793531417846,None,1458.4961438179016,None,./data/Subject_10/Session_00/Exp_data/2020_Aug_03_1152/rec_QA_run_01_block_001_trial_016.wav,10,00,English,A2,True,False,True,False,False,True,True,True,True,True,True,True,No,1,No,No,No,No,2020_Aug_03_1152,nibs_stage_1,3.2.3,59.98220971372512,
1,0,1,0,1,0,1,0,17,0,17,0,,,,,,,,,,,,,,,,,,,,,,,,,Listen to the question and speak out your answer!,1461.530107975006,None,1461.4967142105102,1463.529667854309,Wir schneiden den Apfel in zwei Hälften. ,schneiden,1462.8796391963958,None,1466.0131559848785,None,1478.0805440425872,None,1479.4971868991852,None,./data/Subject_10/Session_00/Exp_data/2020_Aug_03_1152/rec_QA_run_01_block_001_trial_017.wav,10,00,English,A2,True,False,True,False,False,True,True,True,True,True,True,True,No,1,No,No,No,No,2020_Aug_03_1152,nibs_stage_1,3.2.3,59.98220971372512,
1,0,1,0,1,0,1,0,18,0,18,0,,,,,,,,,,,,,,,,,,,,,,,,,Listen to the question and speak out your answer!,1482.5640277862549,None,1482.5317071437835,1484.5641198158264,"In Monaten ohne Regen trocknet die Erde so aus, dass sie ganz staubig wird.",staubig,1483.947425174713,1488.6643319129944,1489.0477061748504,None,1499.148205089569,1500.1649339199066,1500.564957857132,None,./data/Subject_10/Session_00/Exp_data/2020_Aug_03_1152/rec_QA_run_01_block_001_trial_018.wav,10,00,English,A2,True,False,True,False,False,True,True,True,True,True,True,True,No,1,No,No,No,No,2020_Aug_03_1152,nibs_stage_1,3.2.3,59.98220971372512,
1,0,1,0,1,0,1,0,19,0,19,0,,,,,,,,,,,,,,,,,,,,,,,,,Listen to the question and speak out your answer!,1503.5824389457703,None,1503.5490139007568,1505.5818629264832,Alexander Bell hat das Telefon erfunden.,erfunden,1504.9651911735534,1507.6822218894958,1508.0656471729278,None,1520.1659980297088,None,1521.5827388763428,None,./data/Subject_10/Session_00/Exp_data/2020_Aug_03_1152/rec_QA_run_01_block_001_trial_019.wav,10,00,English,A2,True,False,True,False,False,True,True,True,True,True,True,True,No,1,No,No,No,No,2020_Aug_03_1152,nibs_stage_1,3.2.3,59.98220971372512,
1,0,1,0,1,0,1,0,20,0,20,0,,,,,,,,,,,,,,,,,,,,,,,,,Listen to the question and speak out your answer!,1524.6180880069733,None,1524.6006783485411,1526.6163539886475,Hans spielt gerne mit Lego.,spielt,1525.9996569633483,None,1528.2997730255126,None,1541.2004790782928,1542.2171728610992,1542.6171958446503,None,./data/Subject_10/Session_00/Exp_data/2020_Aug_03_1152/rec_QA_run_01_block_001_trial_020.wav,10,00,English,A2,True,False,True,False,False,True,True,True,True,True,True,True,No,1,No,No,No,No,2020_Aug_03_1152,nibs_stage_1,3.2.3,59.98220971372512,
1,0,1,0,1,0,1,0,21,0,21,0,,,,,,,,,,,,,,,,,,,,,,,,,Listen to the question and speak out your answer!,1545.669245004654,None,1545.6512721538543,1547.6674599647522,"Tut mir leid, darf ich fragen warum?",fragen,1547.050687122345,1549.5675959587097,1549.9509590148925,None,1562.251621055603,None,1563.6682908535004,None,./data/Subject_10/Session_00/Exp_data/2020_Aug_03_1152/rec_QA_run_01_block_001_trial_021.wav,10,00,English,A2,True,False,True,False,False,True,True,True,True,True,True,True,No,1,No,No,No,No,2020_Aug_03_1152,nibs_stage_1,3.2.3,59.98220971372512,
1,0,1,0,1,0,1,0,22,0,22,0,,,,,,,,,,,,,,,,,,,,,,,,,Listen to the question and speak out your answer!,1566.735251903534,None,1566.7023700237273,1568.7352468967438,Dank genügend Sonnenschein und Wasser können im Amazonaswald riesige Bäume wachsen.,wachsen,1568.085218000412,None,1573.5855060100555,None,1583.286011981964,1584.3027398586273,1584.7027869224548,None,./data/Subject_10/Session_00/Exp_data/2020_Aug_03_1152/rec_QA_run_01_block_001_trial_022.wav,10,00,English,A2,True,False,True,False,False,True,True,True,True,True,True,True,No,1,No,No,No,No,2020_Aug_03_1152,nibs_stage_1,3.2.3,59.98220971372512,
1,0,1,0,1,0,1,0,23,0,23,0,,,,,,,,,,,,,,,,,,,,,,,,,Listen to the question and speak out your answer!,1587.771274805069,None,1587.753483200073,1589.7696788311005,Sam ist ein ehrlicher Mann und sagt immer die Wahrheit.,sagt,1589.1530189990997,1592.369990825653,1592.7198570251464,None,1604.3207619667053,None,1605.7371838092804,1606.770588874817,./data/Subject_10/Session_00/Exp_data/2020_Aug_03_1152/rec_QA_run_01_block_001_trial_023.wav,10,00,English,A2,True,False,True,False,False,True,True,True,True,True,True,True,No,1,No,No,No,No,2020_Aug_03_1152,nibs_stage_1,3.2.3,59.98220971372512,
1,0,1,0,1,0,1,0,24,0,24,0,,,,,,,,,,,,,,,,,,,,,,,,,Listen to the question and speak out your answer!,1608.8379039764404,None,1608.8045950889586,1610.8374638557434,Man kann die salzige Luft riechen.,riechen,1610.220683145523,None,1612.6209071159362,1613.6376149654388,1625.4216130256652,None,1626.8386039733887,None,./data/Subject_10/Session_00/Exp_data/2020_Aug_03_1152/rec_QA_run_01_block_001_trial_024.wav,10,00,English,A2,True,False,True,False,False,True,True,True,True,True,True,True,No,1,No,No,No,No,2020_Aug_03_1152,nibs_stage_1,3.2.3,59.98220971372512,
