run.thisRepN,run.thisTrialN,run.thisN,run.thisIndex,artifact_trial.thisRepN,artifact_trial.thisTrialN,artifact_trial.thisN,artifact_trial.thisIndex,QA_block.thisRepN,QA_block.thisTrialN,QA_block.thisN,QA_block.thisIndex,QA_trial.thisRepN,QA_trial.thisTrialN,QA_trial.thisN,QA_trial.thisIndex,fade_in_text.text,fade_in_text.started,fade_in_text.stopped,Artifact_intro_title.started,Artifact_intro_title.stopped,Artifact_intro_text.text,Artifact_intro_text.started,Artifact_intro_text.stopped,Artifact_intro_audio.started,Artifact_intro_audio.stopped,Artifact_intro_cont.started,Artifact_intro_cont.stopped,Artifact_rec_text.text,Artifact_rec_text.started,Artifact_rec_text.stopped,Artifact_rec_beep_hint.started,Artifact_rec_beep_hint.stopped,Artifact_rec_action.started,Artifact_rec_action.stopped,Artifact_rec_beep_start.started,Artifact_rec_beep_start.stopped,Artifact_rec_recording.started,Artifact_rec_recording.stopped,Artifact_rec_beep_end.started,Artifact_rec_beep_end.stopped,Artifact_rec_break.started,Artifact_rec_break.stopped,RS_intro_title.started,RS_intro_title.stopped,RS_intro_text.text,RS_intro_text.started,RS_intro_text.stopped,RS_intro_audio.started,RS_intro_audio.stopped,RS_rec_text.text,RS_rec_text.started,RS_rec_text.stopped,Pause_cont.started,Pause_cont.stopped,QA_intro_title.started,QA_intro_title.stopped,QA_intro_text.text,QA_intro_text.started,QA_intro_text.stopped,QA_intro_audio.started,QA_intro_audio.stopped,QA_intro_cont.started,QA_intro_cont.stopped,QA_rec_text.text,QA_rec_text.started,QA_rec_text.stopped,QA_rec_beep_hint.started,QA_rec_beep_hint.stopped,QA_rec_question.sen_text,QA_rec_question.cen_text,QA_rec_question.started,QA_rec_question.stopped,QA_rec_beep_start.started,QA_rec_beep_start.stopped,QA_rec_beep_end.started,QA_rec_beep_end.stopped,QA_rec_break.started,QA_rec_break.stopped,filename,participant,session,First language,German level,Full_screen,Instruction,Intro,Artifact,Cali_pre,Fade_in_out,Artifact_within,Resting_State,QA,Pause,Cali_post,End,Breakpoint_Cali_pre_trial,Breakpoint_Run,Breakpoint_RS_block,Breakpoint_QA_block,Breakpoint_QA_trial,Breakpoint_Cali_post_trial,date,expName,psychopyVersion,frameRate,
2,0,2,0,0,0,0,0,,,,,,,,,Please remain seated until further instruction via the earphone.,55.750701904296875,None,57.78407287597656,None,"  - Task: Artifacts collection   
  - Please follow audio instruction              
",57.78407287597656,None,57.768061900138854,None,84.1522479057312,None,,86.61923694610596,None,86.60282304286957,88.60246205329895,87.98574545383454,None,91.38592150211335,92.38595795631409,92.78591039180756,102.78652501106262,103.18672230243683,104.18659996986389,104.58670687675476,105.58665800094604,,,,,,,,,,,,,,,,,,,,,,,,,,,,,,,,,,,,,,10,00,English,A2,True,False,True,False,False,True,True,True,True,True,True,True,No,2,No,No,No,No,2020_Aug_03_1228,nibs_stage_1,3.2.3,60.02401358957369,
2,0,2,0,1,0,1,0,,,,,,,,,,,,,,,,,,,,,,108.62045788764954,None,108.62074902057648,110.62038087844849,110.0035612821579,None,113.40375330448151,114.40371108055115,114.80408527851105,124.804368019104,125.204385304451,None,126.6044499874115,127.6045229434967,,,,,,,,,,,,,,,,,,,,,,,,,,,,,,,,,,,,,,10,00,English,A2,True,False,True,False,False,True,True,True,True,True,True,True,No,2,No,No,No,No,2020_Aug_03_1228,nibs_stage_1,3.2.3,60.02401358957369,
2,0,2,0,2,0,2,0,,,,,,,,,,,,,,,,,,,,,,130.63784289360046,130.63784289360046,130.62217690944672,132.62125492095947,132.02125432491303,None,135.42144038677216,None,136.82142832279206,146.82193994522095,147.2220864534378,None,148.62211799621582,149.6221718788147,,,,,,,,,,,,,,,,,,,,,,,,,,,,,,,,,,,,,,10,00,English,A2,True,False,True,False,False,True,True,True,True,True,True,True,No,2,No,No,No,No,2020_Aug_03_1228,nibs_stage_1,3.2.3,60.02401358957369,
2,0,2,0,3,0,3,0,,,,,,,,,,,,,,,,,,,,,,152.6394670009613,None,152.6395099401474,154.63924598693848,154.02253534793854,None,157.42272737026215,None,158.8228323698044,168.8233358860016,169.2233712911606,None,170.62341809272766,171.62338709831238,,,,,,,,,,,,,,,,,,,,,,,,,,,,,,,,,,,,,,10,00,English,A2,True,False,True,False,False,True,True,True,True,True,True,True,No,2,No,No,No,No,2020_Aug_03_1228,nibs_stage_1,3.2.3,60.02401358957369,
2,0,2,0,4,0,4,0,,,,,,,,,,,,,,,,,,,,,,174.6569221019745,174.6569221019745,174.64087989330292,176.64017391204834,176.0403683423996,None,179.440398478508,None,180.84041430950165,190.84102392196655,191.24104931354523,192.24101090431213,192.64103603363037,193.64118099212646,,,,,,,,,,,,,,,,,,,,,,,,,,,,,,,,,,,,,,10,00,English,A2,True,False,True,False,False,True,True,True,True,True,True,True,No,2,No,No,No,No,2020_Aug_03_1228,nibs_stage_1,3.2.3,60.02401358957369,
2,0,2,0,5,0,5,0,,,,,,,,,,,,,,,,,,,,,,196.6579270362854,None,196.65858891010285,198.6583890914917,198.04152443408967,None,201.44147827625275,None,202.84170343875886,212.84239888191223,213.2423262834549,214.2423779964447,214.6423819065094,215.64261889457703,,,,,,,,,,,,,,,,,,,,,,,,,,,,,,,,,,,,,,10,00,English,A2,True,False,True,False,False,True,True,True,True,True,True,True,No,2,No,No,No,No,2020_Aug_03_1228,nibs_stage_1,3.2.3,60.02401358957369,
2,0,2,0,6,0,6,0,,,,,,,,,,,,,,,,,,,,,,218.6759340763092,218.6759340763092,218.65989997386933,220.65916800498962,220.05914738178254,None,223.4594652891159,None,224.85939648151398,234.85993099212646,235.25991537570954,236.2599868774414,236.66001105308533,237.66009092330933,,,,,,,,,,,,,,,,,,,,,,,,,,,,,,,,,,,,,,10,00,English,A2,True,False,True,False,False,True,True,True,True,True,True,True,No,2,No,No,No,No,2020_Aug_03_1228,nibs_stage_1,3.2.3,60.02401358957369,
2,0,2,0,7,0,7,0,,,,,,,,,,,,,,,,,,,,,,240.67744398117065,None,240.67747404575348,242.67698407173157,242.06031849384308,245.0604588985443,245.46047642230988,None,246.86051728725434,256.86107897758484,257.261196398735,None,258.66108107566833,259.66122102737427,,,,,,,,,,,,,,,,,,,,,,,,,,,,,,,,,,,,,,10,00,English,A2,True,False,True,False,False,True,True,True,True,True,True,True,No,2,No,No,No,No,2020_Aug_03_1228,nibs_stage_1,3.2.3,60.02401358957369,
2,0,2,0,8,0,8,0,,,,,,,,,,,,,,,,,,,,,,262.69468903541565,262.69468903541565,262.6786349058151,264.6781449317932,264.078125500679,267.07828307151794,267.47829749584196,None,268.878290438652,278.878870010376,279.27890446186063,None,280.67898297309875,281.67894887924194,,,,,,,,,,,,,,,,,,,,,,,,,,,,,,,,,,,,,,10,00,English,A2,True,False,True,False,False,True,True,True,True,True,True,True,No,2,No,No,No,No,2020_Aug_03_1228,nibs_stage_1,3.2.3,60.02401358957369,
2,0,2,0,9,0,9,0,,,,,,,,,,,,,,,,,,,,,,284.69643998146057,None,284.69645001888273,286.6959738731384,286.07940127849577,289.07946395874023,289.4794523954391,None,290.87952449321745,300.88001894950867,301.2800753355026,None,302.6802020072937,303.68010997772217,,,,,,,,,,,,,,,,,,,,,,,,,,,,,,,,,,,,,,10,00,English,A2,True,False,True,False,False,True,True,True,True,True,True,True,No,2,No,No,No,No,2020_Aug_03_1228,nibs_stage_1,3.2.3,60.02401358957369,
2,0,2,0,10,0,10,0,,,,,,,,,,,,,,,,,,,,,,306.71386909484863,306.71386909484863,306.6976108789444,308.69739508628845,308.0977514028549,None,311.4975283384323,None,312.8974783658981,322.89821195602417,323.2981064558029,None,324.69822096824646,325.6983120441437,,,,,,,,,,,,,,,,,,,,,,,,,,,,,,,,,,,,,,10,00,English,A2,True,False,True,False,False,True,True,True,True,True,True,True,No,2,No,No,No,No,2020_Aug_03_1228,nibs_stage_1,3.2.3,60.02401358957369,
2,0,2,0,11,0,11,0,,,,,,,,,,,,,,,,,,,,,,328.7153890132904,None,328.71564104557035,330.71507692337036,330.09846832752226,None,333.49864127635954,334.4986560344696,334.89875342845914,344.8992500305176,345.299321436882,None,346.6993329524994,347.69939494132996,,,,,,,,,,,,,,,,,,,,,,,,,,,,,,,,,,,,,,10,00,English,A2,True,False,True,False,False,True,True,True,True,True,True,True,No,2,No,No,No,No,2020_Aug_03_1228,nibs_stage_1,3.2.3,60.02401358957369,
2,0,2,0,12,0,12,0,,,,,,,,,,,,,,,,,,,,,,350.732784986496,350.732784986496,350.71681501865385,352.7163350582123,352.1162352800369,355.11640095710754,355.51646234989164,None,356.9165463685989,366.9170649051666,367.3170902967453,None,368.7173430919647,369.71723103523254,,,,,,,,,,,,,,,,,,,,,,,,,,,,,,,,,,,,,,10,00,English,A2,True,False,True,False,False,True,True,True,True,True,True,True,No,2,No,No,No,No,2020_Aug_03_1228,nibs_stage_1,3.2.3,60.02401358957369,
2,0,2,0,13,0,13,0,,,,,,,,,,,,,,,,,,,,,,372.7344470024109,None,372.73463704586027,374.7342360019684,374.1173854112625,None,377.51763036251066,378.5176749229431,378.91769936084745,388.91839694976807,389.31826546192167,None,390.7183530330658,391.71836590766907,,,,,,,,,,,,,,,,,,,,,,,,,,,,,,,,,,,,,,10,00,English,A2,True,False,True,False,False,True,True,True,True,True,True,True,No,2,No,No,No,No,2020_Aug_03_1228,nibs_stage_1,3.2.3,60.02401358957369,
2,0,2,0,14,0,14,0,,,,,,,,,,,,,,,,,,,,,,394.75190591812134,394.75190591812134,394.7359659910202,396.73521304130554,396.13528349399564,None,399.5354523897171,None,400.935547375679,410.9360508918762,411.3360862970352,None,412.73633003234863,413.7362060546875,,,,,,,,,,,,,,,,,,,,,,,,,,,,,,,,,,,,,,10,00,English,A2,True,False,True,False,False,True,True,True,True,True,True,True,No,2,No,No,No,No,2020_Aug_03_1228,nibs_stage_1,3.2.3,60.02401358957369,
2,0,2,0,,,,,0,0,0,0,0,0,0,0,,,,,,,,,,,,,,,,,,,,,,,,,,,,624.1638450622559,None," - Task: Keep seated and relaxed with either      
             opening or closing eyes                  
 - Beep sound with decreasing pitch: Block finish 
",624.1638450622559,None,624.1478479146957,None,"Please keep relaxed and open your eyes.
Note: Blinking is allowed.",647.1817529201508,827.1909689903259,830.5743999481201,None,845.9925119876862,885.9940390586853," - Task: Listen to the question& Speak out answer 
 - Melodious beep sound: Trial start              
 - Silent sound (blank): censored word            
 - Beep sound with increasing pitch: Rec. start   
 - Beep sound with decreasing pitch: Rec. finish  
",845.9925119876862,885.9940390586853,845.9928238630295,None,885.3774631023407,None,Listen to the question and speak out your answer!,889.1275548934937,None,889.1117611408233,891.1109929084778,Karneval wird jedes Jahr im Februar oder im März gefeiert.,gefeiert,890.511119389534,894.3278269767761,894.7278473615646,None,905.7119724988937,None,907.1122260093689,908.1120800971985,./data/Subject_10/Session_00/Exp_data/2020_Aug_03_1228/rec_QA_run_02_block_000_trial_000.wav,10,00,English,A2,True,False,True,False,False,True,True,True,True,True,True,True,No,2,No,No,No,No,2020_Aug_03_1228,nibs_stage_1,3.2.3,60.02401358957369,
2,0,2,0,,,,,0,0,0,0,1,0,1,0,,,,,,,,,,,,,,,,,,,,,,,,,,,,,,,,,,,,,,,,,,,,,,,,,Listen to the question and speak out your answer!,910.1787619590759,None,910.1627848863601,912.1624119281769,"Ich nehme lieber den Bus, da gibt es nicht so viele Haltestellen.",gibt,911.5455463171005,None,915.9293613672256,None,926.7466655015945,None,928.1464779376984,929.1465790271759,./data/Subject_10/Session_00/Exp_data/2020_Aug_03_1228/rec_QA_run_02_block_000_trial_001.wav,10,00,English,A2,True,False,True,False,False,True,True,True,True,True,True,True,No,2,No,No,No,No,2020_Aug_03_1228,nibs_stage_1,3.2.3,60.02401358957369,
2,0,2,0,,,,,0,0,0,0,2,0,2,0,,,,,,,,,,,,,,,,,,,,,,,,,,,,,,,,,,,,,,,,,,,,,,,,,Listen to the question and speak out your answer!,931.2131760120392,None,931.2139058828353,933.2134120464325,Früher haben in Europa und Asien Neandertaler gelebt.,gelebt,932.5967104673385,936.2968819141388,936.7135944604873,None,947.7975034952163,None,949.1974930763245,950.1976239681244,./data/Subject_10/Session_00/Exp_data/2020_Aug_03_1228/rec_QA_run_02_block_000_trial_002.wav,10,00,English,A2,True,False,True,False,False,True,True,True,True,True,True,True,No,2,No,No,No,No,2020_Aug_03_1228,nibs_stage_1,3.2.3,60.02401358957369,
2,0,2,0,,,,,0,0,0,0,3,0,3,0,,,,,,,,,,,,,,,,,,,,,,,,,,,,,,,,,,,,,,,,,,,,,,,,,Listen to the question and speak out your answer!,952.2642030715942,None,952.2483594894409,954.2476880550385,Die Hausfrau muss jeden Tag Lebensmittel einkaufen.,einkaufen,953.6475913763046,956.8310799598694,957.2477743864059,958.2480800151825,968.8485994577408,969.8486280441284,970.2486810684204,971.2487480640411,./data/Subject_10/Session_00/Exp_data/2020_Aug_03_1228/rec_QA_run_02_block_000_trial_003.wav,10,00,English,A2,True,False,True,False,False,True,True,True,True,True,True,True,No,2,No,No,No,No,2020_Aug_03_1228,nibs_stage_1,3.2.3,60.02401358957369,
2,0,2,0,,,,,0,0,0,0,4,0,4,0,,,,,,,,,,,,,,,,,,,,,,,,,,,,,,,,,,,,,,,,,,,,,,,,,Listen to the question and speak out your answer!,973.3169069290161,None,973.2994528532028,975.2989120483398,Singapore liegt in Südostasien.,liegt,974.6822884321213,None,977.5323784589767,None,989.8830433130264,None,991.283282995224,992.2832109928131,./data/Subject_10/Session_00/Exp_data/2020_Aug_03_1228/rec_QA_run_02_block_000_trial_004.wav,10,00,English,A2,True,False,True,False,False,True,True,True,True,True,True,True,No,2,No,No,No,No,2020_Aug_03_1228,nibs_stage_1,3.2.3,60.02401358957369,
2,0,2,0,,,,,0,0,0,0,5,0,5,0,,,,,,,,,,,,,,,,,,,,,,,,,,,,,,,,,,,,,,,,,,,,,,,,,Listen to the question and speak out your answer!,994.3497281074524,None,994.3338554382324,996.3332319259644,Die Bergarbeiter fuhren jeden Tag in die Grube.,fuhren,995.7331364393234,998.9001610279083,999.3000753164291,None,1010.9343483686447,None,1012.334223985672,1013.3346180915833,./data/Subject_10/Session_00/Exp_data/2020_Aug_03_1228/rec_QA_run_02_block_000_trial_005.wav,10,00,English,A2,True,False,True,False,False,True,True,True,True,True,True,True,No,2,No,No,No,No,2020_Aug_03_1228,nibs_stage_1,3.2.3,60.02401358957369,
2,0,2,0,,,,,0,0,0,0,6,0,6,0,,,,,,,,,,,,,,,,,,,,,,,,,,,,,,,,,,,,,,,,,,,,,,,,,Listen to the question and speak out your answer!,1015.3847498893738,None,1015.368650484085,1017.3841679096222,"Bitte öffnen Sie das Fenster, um frische Luft hereinzulassen.",öffnen,1016.7675664663315,None,1020.9177503824234,None,1031.9682924985887,None,1033.3684310913086,1034.3684129714966,./data/Subject_10/Session_00/Exp_data/2020_Aug_03_1228/rec_QA_run_02_block_000_trial_006.wav,10,00,English,A2,True,False,True,False,False,True,True,True,True,True,True,True,No,2,No,No,No,No,2020_Aug_03_1228,nibs_stage_1,3.2.3,60.02401358957369,
2,0,2,0,,,,,0,0,0,0,7,0,7,0,,,,,,,,,,,,,,,,,,,,,,,,,,,,,,,,,,,,,,,,,,,,,,,,,Listen to the question and speak out your answer!,1036.4354600906372,None,1036.4191177606583,1038.4189159870148,Kann ich mich um das Stipendium bewerben?,bewerben,1037.8024814367295,1040.0522480010986,1040.4690113306046,None,1053.0031564474107,None,1054.403100013733,1055.403156042099,./data/Subject_10/Session_00/Exp_data/2020_Aug_03_1228/rec_QA_run_02_block_000_trial_007.wav,10,00,English,A2,True,False,True,False,False,True,True,True,True,True,True,True,No,2,No,No,No,No,2020_Aug_03_1228,nibs_stage_1,3.2.3,60.02401358957369,
2,0,2,0,,,,,0,0,0,0,8,0,8,0,,,,,,,,,,,,,,,,,,,,,,,,,,,,,,,,,,,,,,,,,,,,,,,,,Listen to the question and speak out your answer!,1057.470319032669,None,1057.4538674831392,1059.4535338878632,Afrika liegt südlich von Europa .,liegt,1058.853386425972,1061.4202859401703,1061.836926484108,1062.8369510173798,1074.0544924974442,1075.054277896881,1075.4543828964233,1076.4542679786682,./data/Subject_10/Session_00/Exp_data/2020_Aug_03_1228/rec_QA_run_02_block_000_trial_008.wav,10,00,English,A2,True,False,True,False,False,True,True,True,True,True,True,True,No,2,No,No,No,No,2020_Aug_03_1228,nibs_stage_1,3.2.3,60.02401358957369,
2,0,2,0,,,,,0,0,0,0,9,0,9,0,,,,,,,,,,,,,,,,,,,,,,,,,,,,,,,,,,,,,,,,,,,,,,,,,Listen to the question and speak out your answer!,1078.5046880245209,None,1078.4883003711702,1080.4876260757446,Die zwei Männer bewerben sich um einen gleichen Arbeitsplatz.,bewerben,1079.887496495247,1083.5877830982208,1083.9877684354783,None,1095.0884013414384,None,1096.488382101059,1097.488431930542,./data/Subject_10/Session_00/Exp_data/2020_Aug_03_1228/rec_QA_run_02_block_000_trial_009.wav,10,00,English,A2,True,False,True,False,False,True,True,True,True,True,True,True,No,2,No,No,No,No,2020_Aug_03_1228,nibs_stage_1,3.2.3,60.02401358957369,
2,0,2,0,,,,,0,0,0,0,10,0,10,0,,,,,,,,,,,,,,,,,,,,,,,,,,,,,,,,,,,,,,,,,,,,,,,,,Listen to the question and speak out your answer!,1099.5559129714966,None,1099.5391367197037,1101.5387210845947,Die Ausbildung besteht aus mehreren Modulen.,besteht,1100.921997332573,None,1104.0722053289414,1105.0721609592438,1116.1228654623033,1117.1228868961334,1117.5228950977325,1118.5228579044342,./data/Subject_10/Session_00/Exp_data/2020_Aug_03_1228/rec_QA_run_02_block_000_trial_010.wav,10,00,English,A2,True,False,True,False,False,True,True,True,True,True,True,True,No,2,No,No,No,No,2020_Aug_03_1228,nibs_stage_1,3.2.3,60.02401358957369,
2,0,2,0,,,,,0,0,0,0,11,0,11,0,,,,,,,,,,,,,,,,,,,,,,,,,,,,,,,,,,,,,,,,,,,,,,,,,Listen to the question and speak out your answer!,1120.623162984848,None,1120.607037162781,1122.6065158843994,Er wurde zum Leiter der Abteilung befördert.,befördert,1121.9898314714433,None,1125.0399713754655,None,1137.1906254529954,None,1138.5906870365143,1139.5907599925995,./data/Subject_10/Session_00/Exp_data/2020_Aug_03_1228/rec_QA_run_02_block_000_trial_011.wav,10,00,English,A2,True,False,True,False,False,True,True,True,True,True,True,True,No,2,No,No,No,No,2020_Aug_03_1228,nibs_stage_1,3.2.3,60.02401358957369,
2,0,2,0,,,,,0,0,0,0,12,0,12,0,,,,,,,,,,,,,,,,,,,,,,,,,,,,,,,,,,,,,,,,,,,,,,,,,Listen to the question and speak out your answer!,1141.6576120853424,None,1141.641532468796,1143.640958070755,Ich habe seine Telefonnummer auf einem Zettel notiert.,notiert,1143.024293446541,1146.224443912506,1146.6244654893876,None,1158.2251193761826,None,1159.6251349449158,1160.6252100467682,./data/Subject_10/Session_00/Exp_data/2020_Aug_03_1228/rec_QA_run_02_block_000_trial_012.wav,10,00,English,A2,True,False,True,False,False,True,True,True,True,True,True,True,No,2,No,No,No,No,2020_Aug_03_1228,nibs_stage_1,3.2.3,60.02401358957369,
2,0,2,0,,,,,0,0,0,0,13,0,13,0,,,,,,,,,,,,,,,,,,,,,,,,,,,,,,,,,,,,,,,,,,,,,,,,,Listen to the question and speak out your answer!,1162.692132949829,None,1162.6759784698488,1164.675369977951,Wir essen Salat oft ungekocht.,essen,1164.0753813028336,1166.308942079544,1166.7254514932633,1167.7255849838257,1179.2761194944383,None,1180.6762709617615,1181.6763188838959,./data/Subject_10/Session_00/Exp_data/2020_Aug_03_1228/rec_QA_run_02_block_000_trial_013.wav,10,00,English,A2,True,False,True,False,False,True,True,True,True,True,True,True,No,2,No,No,No,No,2020_Aug_03_1228,nibs_stage_1,3.2.3,60.02401358957369,
2,0,2,0,,,,,0,0,0,0,14,0,14,0,,,,,,,,,,,,,,,,,,,,,,,,,,,,,,,,,,,,,,,,,,,,,,,,,Listen to the question and speak out your answer!,1183.7265620231628,None,1183.710351276398,1185.709937095642,Ein junges Ehepaar ist gerade in das neue Haus neben unserem eingezogen.,eingezogen,1185.109907412529,1189.6266610622406,1190.043416285515,None,1200.3108895063401,None,1201.7109320163727,1202.7109940052032,./data/Subject_10/Session_00/Exp_data/2020_Aug_03_1228/rec_QA_run_02_block_000_trial_014.wav,10,00,English,A2,True,False,True,False,False,True,True,True,True,True,True,True,No,2,No,No,No,No,2020_Aug_03_1228,nibs_stage_1,3.2.3,60.02401358957369,
2,0,2,0,,,,,0,0,0,0,15,0,15,0,,,,,,,,,,,,,,,,,,,,,,,,,,,,,,,,,,,,,,,,,,,,,,,,,Listen to the question and speak out your answer!,1204.7611060142517,None,1204.7450263977053,1206.744530916214,Das Eingreifen des Lehrers beendete den Kampf  der Schüler.,beendete,1206.14468934536,1209.7446029186249,1210.1446392774583,1211.1447579860687,1221.3453352689744,None,1222.745423078537,1223.7454879283905,./data/Subject_10/Session_00/Exp_data/2020_Aug_03_1228/rec_QA_run_02_block_000_trial_015.wav,10,00,English,A2,True,False,True,False,False,True,True,True,True,True,True,True,No,2,No,No,No,No,2020_Aug_03_1228,nibs_stage_1,3.2.3,60.02401358957369,
2,0,2,0,,,,,0,0,0,0,16,0,16,0,,,,,,,,,,,,,,,,,,,,,,,,,,,,,,,,,,,,,,,,,,,,,,,,,Listen to the question and speak out your answer!,1225.7961819171906,None,1225.7795203208925,1227.7789781093597,Dieser Bus bringt dich zum Strand.,bringt,1227.162293457985,None,1229.57908346653,None,1242.3630023241044,None,1243.7631568908691,1244.763428926468,./data/Subject_10/Session_00/Exp_data/2020_Aug_03_1228/rec_QA_run_02_block_000_trial_016.wav,10,00,English,A2,True,False,True,False,False,True,True,True,True,True,True,True,No,2,No,No,No,No,2020_Aug_03_1228,nibs_stage_1,3.2.3,60.02401358957369,
2,0,2,0,,,,,0,0,0,0,17,0,17,0,,,,,,,,,,,,,,,,,,,,,,,,,,,,,,,,,,,,,,,,,,,,,,,,,Listen to the question and speak out your answer!,1246.8302290439606,None,1246.8138893127443,1248.8134479522705,Morgens stehe ich um kurz vor sieben Uhr auf.,stehe,1248.2136013746263,1251.1303451061249,1251.546822333336,1252.5469598770142,1263.4142143964768,None,1264.814378976822,1265.814327955246,./data/Subject_10/Session_00/Exp_data/2020_Aug_03_1228/rec_QA_run_02_block_000_trial_017.wav,10,00,English,A2,True,False,True,False,False,True,True,True,True,True,True,True,No,2,No,No,No,No,2020_Aug_03_1228,nibs_stage_1,3.2.3,60.02401358957369,
2,0,2,0,,,,,0,0,0,0,18,0,18,0,,,,,,,,,,,,,,,,,,,,,,,,,,,,,,,,,,,,,,,,,,,,,,,,,Listen to the question and speak out your answer!,1267.8644468784332,None,1267.848360347748,1269.8479568958282,"Weil er so hungrig war, hat Franz einmal einen Apfel gestohlen.",gestohlen,1269.23125436306,1272.9980421066284,1273.3983414411546,None,1284.4319525003434,None,1285.832104921341,1286.8320400714874,./data/Subject_10/Session_00/Exp_data/2020_Aug_03_1228/rec_QA_run_02_block_000_trial_018.wav,10,00,English,A2,True,False,True,False,False,True,True,True,True,True,True,True,No,2,No,No,No,No,2020_Aug_03_1228,nibs_stage_1,3.2.3,60.02401358957369,
2,0,2,0,,,,,0,0,0,0,19,0,19,0,,,,,,,,,,,,,,,,,,,,,,,,,,,,,,,,,,,,,,,,,,,,,,,,,Listen to the question and speak out your answer!,1288.8986608982086,None,1288.882977294922,1290.8820979595184,Wir haben während des Urlaubs ein gemütliches Zimmer in Meeresnähe gemietet.,gemietet,1290.2821712732316,1294.782322883606,1295.1823344469071,None,1305.483112359047,1306.4831640720367,1306.8832941055298,1307.8832669258118,./data/Subject_10/Session_00/Exp_data/2020_Aug_03_1228/rec_QA_run_02_block_000_trial_019.wav,10,00,English,A2,True,False,True,False,False,True,True,True,True,True,True,True,No,2,No,No,No,No,2020_Aug_03_1228,nibs_stage_1,3.2.3,60.02401358957369,
2,0,2,0,,,,,0,0,0,0,20,0,20,0,,,,,,,,,,,,,,,,,,,,,,,,,,,,,,,,,,,,,,,,,,,,,,,,,Listen to the question and speak out your answer!,1309.933765888214,None,1309.9172993183138,1311.916454076767,Die Zähne werden geputzt und der Bart rasiert.,rasiert,1311.2998824357987,1314.2167899608612,1314.6335532903672,None,1326.5010674238206,None,1327.9009659290314,1328.9009850025177,./data/Subject_10/Session_00/Exp_data/2020_Aug_03_1228/rec_QA_run_02_block_000_trial_020.wav,10,00,English,A2,True,False,True,False,False,True,True,True,True,True,True,True,No,2,No,No,No,No,2020_Aug_03_1228,nibs_stage_1,3.2.3,60.02401358957369,
2,0,2,0,,,,,0,0,0,0,21,0,21,0,,,,,,,,,,,,,,,,,,,,,,,,,,,,,,,,,,,,,,,,,,,,,,,,,Listen to the question and speak out your answer!,1330.9675900936127,None,1330.9516892910005,1332.9509210586548,"Araber lieben es, auf den Märkten zu handeln.",handeln,1332.3508932828904,1335.1678330898285,1335.5678103208543,None,1347.5516934633256,None,1348.9519169330597,1349.952017068863,./data/Subject_10/Session_00/Exp_data/2020_Aug_03_1228/rec_QA_run_02_block_000_trial_021.wav,10,00,English,A2,True,False,True,False,False,True,True,True,True,True,True,True,No,2,No,No,No,No,2020_Aug_03_1228,nibs_stage_1,3.2.3,60.02401358957369,
2,0,2,0,,,,,0,0,0,0,22,0,22,0,,,,,,,,,,,,,,,,,,,,,,,,,,,,,,,,,,,,,,,,,,,,,,,,,Listen to the question and speak out your answer!,1352.0025210380554,None,1352.0027218580246,1354.0023219585419,Mein Freund schenkt mir eine Schachtel mit Schokolade.,schenkt,1353.385629439354,None,1356.8360274076463,1357.8358969688416,1368.5863754987718,None,1369.9865279197693,1370.9868359565735,./data/Subject_10/Session_00/Exp_data/2020_Aug_03_1228/rec_QA_run_02_block_000_trial_022.wav,10,00,English,A2,True,False,True,False,False,True,True,True,True,True,True,True,No,2,No,No,No,No,2020_Aug_03_1228,nibs_stage_1,3.2.3,60.02401358957369,
2,0,2,0,,,,,0,0,0,0,23,0,23,0,,,,,,,,,,,,,,,,,,,,,,,,,,,,,,,,,,,,,,,,,,,,,,,,,Listen to the question and speak out your answer!,1373.0366659164429,None,1373.0208683490755,1375.0365591049194,Kannst du bitte die Wäsche in die Sonne hängen?,hängen,1374.4197814702989,1376.820034980774,1377.236593270302,None,1389.6205644845963,1390.6207048892975,1391.0207200050354,1392.0207879543304,./data/Subject_10/Session_00/Exp_data/2020_Aug_03_1228/rec_QA_run_02_block_000_trial_023.wav,10,00,English,A2,True,False,True,False,False,True,True,True,True,True,True,True,No,2,No,No,No,No,2020_Aug_03_1228,nibs_stage_1,3.2.3,60.02401358957369,
2,0,2,0,,,,,0,0,0,0,24,0,24,0,,,,,,,,,,,,,,,,,,,,,,,,,,,,,,,,,,,,,,,,,,,,,,,,,Listen to the question and speak out your answer!,1394.0714559555054,None,1394.0714927434922,1396.0709068775177,Taktlose Fragen machen mich wütend.,machen,1395.437643313408,None,1398.4043662786485,None,1410.638369345665,None,1412.0384969711304,1413.0386009216309,./data/Subject_10/Session_00/Exp_data/2020_Aug_03_1228/rec_QA_run_02_block_000_trial_024.wav,10,00,English,A2,True,False,True,False,False,True,True,True,True,True,True,True,No,2,No,No,No,No,2020_Aug_03_1228,nibs_stage_1,3.2.3,60.02401358957369,
2,0,2,0,,,,,0,0,0,0,,,,,,,,,,,,,,,,,,,,,,,,,,,,,,,,,,,,,,,,,,1416.1054770946503,None,,,,,,,,,,,,,,,,,,,,,,,,,,10,00,English,A2,True,False,True,False,False,True,True,True,True,True,True,True,No,2,No,No,No,No,2020_Aug_03_1228,nibs_stage_1,3.2.3,60.02401358957369,
2,0,2,0,,,,,1,0,1,0,0,0,0,0,,,,,,,,,,,,,,,,,,,,,,,,,,,,,,,,,,,,,,,,,,,,,,,,,Listen to the question and speak out your answer!,1487.859544992447,None,1487.8433745622635,1489.8426039218903,"Da Mark gestern sehr spät aufgestanden ist, wird er heute nicht früh aufstehen.",aufstehen,1489.2258413076402,None,1494.2763064146043,None,1504.426946425438,None,1505.8270630836487,1506.827096939087,./data/Subject_10/Session_00/Exp_data/2020_Aug_03_1228/rec_QA_run_02_block_001_trial_000.wav,10,00,English,A2,True,False,True,False,False,True,True,True,True,True,True,True,No,2,No,No,No,No,2020_Aug_03_1228,nibs_stage_1,3.2.3,60.02401358957369,
2,0,2,0,,,,,1,0,1,0,1,0,1,0,,,,,,,,,,,,,,,,,,,,,,,,,,,,,,,,,,,,,,,,,,,,,,,,,Listen to the question and speak out your answer!,1508.8938698768616,None,1508.8778102874758,1510.8773019313812,"Bitten aufpassen, zu viel Zucker schadet der Gesundheit.",aufpassen,1510.2772393465043,1513.6440279483795,1514.0441403627397,None,1525.4780974626542,None,1526.8781609535217,1527.8781878948212,./data/Subject_10/Session_00/Exp_data/2020_Aug_03_1228/rec_QA_run_02_block_001_trial_001.wav,10,00,English,A2,True,False,True,False,False,True,True,True,True,True,True,True,No,2,No,No,No,No,2020_Aug_03_1228,nibs_stage_1,3.2.3,60.02401358957369,
2,0,2,0,,,,,1,0,1,0,2,0,2,0,,,,,,,,,,,,,,,,,,,,,,,,,,,,,,,,,,,,,,,,,,,,,,,,,Listen to the question and speak out your answer!,1529.9293038845062,None,1529.928892683983,1531.9284090995789,"Das Fenster ist offen, aber ich werde es schließen.",schließen,1531.3116164445878,None,1534.7284763097764,None,1546.512517476082,None,1547.9124810695648,1548.9126420021057,./data/Subject_10/Session_00/Exp_data/2020_Aug_03_1228/rec_QA_run_02_block_001_trial_002.wav,10,00,English,A2,True,False,True,False,False,True,True,True,True,True,True,True,No,2,No,No,No,No,2020_Aug_03_1228,nibs_stage_1,3.2.3,60.02401358957369,
2,0,2,0,,,,,1,0,1,0,3,0,3,0,,,,,,,,,,,,,,,,,,,,,,,,,,,,,,,,,,,,,,,,,,,,,,,,,Listen to the question and speak out your answer!,1550.963026046753,None,1550.9633467912674,1552.9627499580383,"Es ist nicht zulässig, bei der Prüfung Hilfsmittel zu benutzen.",benutzen,1552.3461654424668,None,1556.396276497841,None,1567.5471334695817,None,1568.9470129013062,1569.9470779895782,./data/Subject_10/Session_00/Exp_data/2020_Aug_03_1228/rec_QA_run_02_block_001_trial_003.wav,10,00,English,A2,True,False,True,False,False,True,True,True,True,True,True,True,No,2,No,No,No,No,2020_Aug_03_1228,nibs_stage_1,3.2.3,60.02401358957369,
2,0,2,0,,,,,1,0,1,0,4,0,4,0,,,,,,,,,,,,,,,,,,,,,,,,,,,,,,,,,,,,,,,,,,,,,,,,,Listen to the question and speak out your answer!,1572.014643907547,None,1571.99778277874,1573.9971919059753,Die Medien und Reporter sollten die Wahrheit berichten.,berichten,1573.380582356453,None,1576.8808002710343,None,1588.5814333200456,1589.5813338756561,1589.98144197464,1590.9815020561218,./data/Subject_10/Session_00/Exp_data/2020_Aug_03_1228/rec_QA_run_02_block_001_trial_004.wav,10,00,English,A2,True,False,True,False,False,True,True,True,True,True,True,True,No,2,No,No,No,No,2020_Aug_03_1228,nibs_stage_1,3.2.3,60.02401358957369,
2,0,2,0,,,,,1,0,1,0,5,0,5,0,,,,,,,,,,,,,,,,,,,,,,,,,,,,,,,,,,,,,,,,,,,,,,,,,Listen to the question and speak out your answer!,1593.0480818748474,None,1593.032204437256,1595.0318500995636,Warum antwortest du nicht auf meine Frage?,antwortest,1594.4316923856736,None,1597.5319044828416,None,1609.6324262857438,None,1611.0325810909271,None,./data/Subject_10/Session_00/Exp_data/2020_Aug_03_1228/rec_QA_run_02_block_001_trial_005.wav,10,00,English,A2,True,False,True,False,False,True,True,True,True,True,True,True,No,2,No,No,No,No,2020_Aug_03_1228,nibs_stage_1,3.2.3,60.02401358957369,
2,0,2,0,,,,,1,0,1,0,6,0,6,0,,,,,,,,,,,,,,,,,,,,,,,,,,,,,,,,,,,,,,,,,,,,,,,,,Listen to the question and speak out your answer!,1614.0829811096191,None,1614.0667412757875,1616.0658469200134,"Melanie sieht so schlecht, sie braucht eine Brille.",braucht,1615.4659033060075,1618.3995079994202,1618.7996254205705,1619.7996890544891,1630.683360362053,None,1632.1001060009003,None,./data/Subject_10/Session_00/Exp_data/2020_Aug_03_1228/rec_QA_run_02_block_001_trial_006.wav,10,00,English,A2,True,False,True,False,False,True,True,True,True,True,True,True,No,2,No,No,No,No,2020_Aug_03_1228,nibs_stage_1,3.2.3,60.02401358957369,
2,0,2,0,,,,,1,0,1,0,7,0,7,0,,,,,,,,,,,,,,,,,,,,,,,,,,,,,,,,,,,,,,,,,,,,,,,,,Listen to the question and speak out your answer!,1635.1338551044464,None,1635.1175287485123,1637.1337110996246,"Bitte zahlen Sie sofort, wir nehmen keinen Kredit.",zahlen,1636.517010474205,None,1640.2172134160996,1641.233934879303,1651.7177443742753,None,1653.1345529556274,None,./data/Subject_10/Session_00/Exp_data/2020_Aug_03_1228/rec_QA_run_02_block_001_trial_007.wav,10,00,English,A2,True,False,True,False,False,True,True,True,True,True,True,True,No,2,No,No,No,No,2020_Aug_03_1228,nibs_stage_1,3.2.3,60.02401358957369,
2,0,2,0,,,,,1,0,1,0,8,0,8,0,,,,,,,,,,,,,,,,,,,,,,,,,,,,,,,,,,,,,,,,,,,,,,,,,Listen to the question and speak out your answer!,1656.2018930912018,None,1656.1854248762131,1658.2014729976654,Die friedlichen Pandas kommen aus China.,kommen,1657.5847833395005,None,1660.4849353075028,None,1672.78563144207,None,1674.2023220062256,None,./data/Subject_10/Session_00/Exp_data/2020_Aug_03_1228/rec_QA_run_02_block_001_trial_008.wav,10,00,English,A2,True,False,True,False,False,True,True,True,True,True,True,True,No,2,No,No,No,No,2020_Aug_03_1228,nibs_stage_1,3.2.3,60.02401358957369,
2,0,2,0,,,,,1,0,1,0,9,0,9,0,,,,,,,,,,,,,,,,,,,,,,,,,,,,,,,,,,,,,,,,,,,,,,,,,Listen to the question and speak out your answer!,1677.2531070709229,None,1677.2364404678347,1679.2525959014893,Wir haben die Buchung per E-Mail bestätigt.,bestätigt,1678.6359033823014,None,1681.6027364969254,1682.6194670200348,1693.8368504285813,None,1695.2534730434418,None,./data/Subject_10/Session_00/Exp_data/2020_Aug_03_1228/rec_QA_run_02_block_001_trial_009.wav,10,00,English,A2,True,False,True,False,False,True,True,True,True,True,True,True,No,2,No,No,No,No,2020_Aug_03_1228,nibs_stage_1,3.2.3,60.02401358957369,
2,0,2,0,,,,,1,0,1,0,10,0,10,0,,,,,,,,,,,,,,,,,,,,,,,,,,,,,,,,,,,,,,,,,,,,,,,,,Listen to the question and speak out your answer!,1698.2869429588318,None,1698.2709839582444,1700.2870240211487,Viele Indianer leben in Reservaten.,leben,1699.67034842968,None,1702.8038413763047,None,1714.8711552858354,1715.8878350257874,1716.2878549098969,None,./data/Subject_10/Session_00/Exp_data/2020_Aug_03_1228/rec_QA_run_02_block_001_trial_010.wav,10,00,English,A2,True,False,True,False,False,True,True,True,True,True,True,True,No,2,No,No,No,No,2020_Aug_03_1228,nibs_stage_1,3.2.3,60.02401358957369,
2,0,2,0,,,,,1,0,1,0,11,0,11,0,,,,,,,,,,,,,,,,,,,,,,,,,,,,,,,,,,,,,,,,,,,,,,,,,Listen to the question and speak out your answer!,1719.3547868728638,None,1719.3386417150498,1721.3549959659576,Die USA haben viele Satelliten in den Weltraum geschickt.,geschickt,1720.7382033109666,None,1724.705140376091,1725.721792936325,1735.9391174554826,None,1737.3557438850403,None,./data/Subject_10/Session_00/Exp_data/2020_Aug_03_1228/rec_QA_run_02_block_001_trial_011.wav,10,00,English,A2,True,False,True,False,False,True,True,True,True,True,True,True,No,2,No,No,No,No,2020_Aug_03_1228,nibs_stage_1,3.2.3,60.02401358957369,
2,0,2,0,,,,,1,0,1,0,12,0,12,0,,,,,,,,,,,,,,,,,,,,,,,,,,,,,,,,,,,,,,,,,,,,,,,,,Listen to the question and speak out your answer!,1740.423003911972,None,1740.406597685814,1742.4227130413055,In der Pause werden kleine Brötchen serviert.,serviert,1741.8060014486314,1744.656163930893,1745.0394864320756,None,1757.0067744493485,None,1758.4234879016876,None,./data/Subject_10/Session_00/Exp_data/2020_Aug_03_1228/rec_QA_run_02_block_001_trial_012.wav,10,00,English,A2,True,False,True,False,False,True,True,True,True,True,True,True,No,2,No,No,No,No,2020_Aug_03_1228,nibs_stage_1,3.2.3,60.02401358957369,
2,0,2,0,,,,,1,0,1,0,13,0,13,0,,,,,,,,,,,,,,,,,,,,,,,,,,,,,,,,,,,,,,,,,,,,,,,,,Listen to the question and speak out your answer!,1761.475172996521,None,1761.4576132774355,1763.473799943924,"Da Sie keine andere Wahl haben, können Sie nicht wählen.",wählen,1762.8570764303208,None,1766.490605378151,1767.507234096527,1778.0577965021134,None,1779.4745540618896,None,./data/Subject_10/Session_00/Exp_data/2020_Aug_03_1228/rec_QA_run_02_block_001_trial_013.wav,10,00,English,A2,True,False,True,False,False,True,True,True,True,True,True,True,No,2,No,No,No,No,2020_Aug_03_1228,nibs_stage_1,3.2.3,60.02401358957369,
2,0,2,0,,,,,1,0,1,0,14,0,14,0,,,,,,,,,,,,,,,,,,,,,,,,,,,,,,,,,,,,,,,,,,,,,,,,,Listen to the question and speak out your answer!,1782.5415120124817,None,1782.5253098726273,1784.541465997696,"Das verstehe ich nicht, was meinst du damit?",meinst,1783.9247844457627,1786.6082479953766,1786.9916084051133,1788.0083088874817,1799.1255724668504,None,1800.5423250198364,None,./data/Subject_10/Session_00/Exp_data/2020_Aug_03_1228/rec_QA_run_02_block_001_trial_014.wav,10,00,English,A2,True,False,True,False,False,True,True,True,True,True,True,True,No,2,No,No,No,No,2020_Aug_03_1228,nibs_stage_1,3.2.3,60.02401358957369,
2,0,2,0,,,,,1,0,1,0,15,0,15,0,,,,,,,,,,,,,,,,,,,,,,,,,,,,,,,,,,,,,,,,,,,,,,,,,Listen to the question and speak out your answer!,1803.6100509166718,None,1803.5930698633194,1805.6092410087585,Das Auto hatte die Grenze passiert.,passiert,1804.9925472974778,1807.2762598991394,1807.6593482732774,None,1820.1933524847032,1821.2100610733032,1821.6101970672607,None,./data/Subject_10/Session_00/Exp_data/2020_Aug_03_1228/rec_QA_run_02_block_001_trial_015.wav,10,00,English,A2,True,False,True,False,False,True,True,True,True,True,True,True,No,2,No,No,No,No,2020_Aug_03_1228,nibs_stage_1,3.2.3,60.02401358957369,
2,0,2,0,,,,,1,0,1,0,16,0,16,0,,,,,,,,,,,,,,,,,,,,,,,,,,,,,,,,,,,,,,,,,,,,,,,,,Listen to the question and speak out your answer!,1824.6779220104218,None,1824.6608377218247,1826.677011013031,Susi isst zum Frühstück gerne ein weiches Ei.,isst,1826.0603213548661,1829.0771389007568,1829.4605083703996,None,1841.26112844944,None,1842.6777939796448,None,./data/Subject_10/Session_00/Exp_data/2020_Aug_03_1228/rec_QA_run_02_block_001_trial_016.wav,10,00,English,A2,True,False,True,False,False,True,True,True,True,True,True,True,No,2,No,No,No,No,2020_Aug_03_1228,nibs_stage_1,3.2.3,60.02401358957369,
2,0,2,0,,,,,1,0,1,0,17,0,17,0,,,,,,,,,,,,,,,,,,,,,,,,,,,,,,,,,,,,,,,,,,,,,,,,,Listen to the question and speak out your answer!,1845.7614459991455,None,1845.7286127328873,1847.7613639831543,Ich möchte meinen tiefen Dank für seine Hilfe aussprechen.,aussprechen,1847.1447644472123,1850.4953179359436,1850.8782832860948,1851.8950219154358,1862.3454733133317,1863.362272977829,1863.7623028755188,None,./data/Subject_10/Session_00/Exp_data/2020_Aug_03_1228/rec_QA_run_02_block_001_trial_017.wav,10,00,English,A2,True,False,True,False,False,True,True,True,True,True,True,True,No,2,No,No,No,No,2020_Aug_03_1228,nibs_stage_1,3.2.3,60.02401358957369,
2,0,2,0,,,,,1,0,1,0,18,0,18,0,,,,,,,,,,,,,,,,,,,,,,,,,,,,,,,,,,,,,,,,,,,,,,,,,Listen to the question and speak out your answer!,1866.7961249351501,None,1866.7797177553177,1868.795891046524,"Wir planen eine Route durch das ganze Land, von Westen bis Osten.",planen,1868.1458642721177,None,1872.7127855062486,None,1883.346639418602,None,1884.763426065445,None,./data/Subject_10/Session_00/Exp_data/2020_Aug_03_1228/rec_QA_run_02_block_001_trial_018.wav,10,00,English,A2,True,False,True,False,False,True,True,True,True,True,True,True,No,2,No,No,No,No,2020_Aug_03_1228,nibs_stage_1,3.2.3,60.02401358957369,
2,0,2,0,,,,,1,0,1,0,19,0,19,0,,,,,,,,,,,,,,,,,,,,,,,,,,,,,,,,,,,,,,,,,,,,,,,,,Listen to the question and speak out your answer!,1887.830570936203,None,1887.814148736,1889.830314874649,In Österreich gibt es eine richtige Kaffeehauskultur.,gibt,1889.2137723207475,1892.5304679870605,1892.8805094003678,1893.8972239494324,1904.3811044931413,None,1905.7978489398956,None,./data/Subject_10/Session_00/Exp_data/2020_Aug_03_1228/rec_QA_run_02_block_001_trial_019.wav,10,00,English,A2,True,False,True,False,False,True,True,True,True,True,True,True,No,2,No,No,No,No,2020_Aug_03_1228,nibs_stage_1,3.2.3,60.02401358957369,
2,0,2,0,,,,,1,0,1,0,20,0,20,0,,,,,,,,,,,,,,,,,,,,,,,,,,,,,,,,,,,,,,,,,,,,,,,,,Listen to the question and speak out your answer!,1908.8652439117432,None,1908.8486078500748,1910.864774942398,"Wenn ich mich gestresst fühle, muss ich mich selbst daran erinnern, ruhig zu bleiben.",erinnern,1910.2480793237687,1914.964989900589,1915.3484494924546,None,1925.4488673448564,None,1926.86559009552,None,./data/Subject_10/Session_00/Exp_data/2020_Aug_03_1228/rec_QA_run_02_block_001_trial_020.wav,10,00,English,A2,True,False,True,False,False,True,True,True,True,True,True,True,No,2,No,No,No,No,2020_Aug_03_1228,nibs_stage_1,3.2.3,60.02401358957369,
2,0,2,0,,,,,1,0,1,0,21,0,21,0,,,,,,,,,,,,,,,,,,,,,,,,,,,,,,,,,,,,,,,,,,,,,,,,,Listen to the question and speak out your answer!,1929.9329478740692,None,1929.8997004508974,1931.9325590133667,"Ich darf Sie bitten, meinem Antrag zu entsprechen.",bitten,1931.3158493280412,None,1934.516024374962,1935.5327970981598,1946.516702437401,None,1947.9333798885345,None,./data/Subject_10/Session_00/Exp_data/2020_Aug_03_1228/rec_QA_run_02_block_001_trial_021.wav,10,00,English,A2,True,False,True,False,False,True,True,True,True,True,True,True,No,2,No,No,No,No,2020_Aug_03_1228,nibs_stage_1,3.2.3,60.02401358957369,
2,0,2,0,,,,,1,0,1,0,22,0,22,0,,,,,,,,,,,,,,,,,,,,,,,,,,,,,,,,,,,,,,,,,,,,,,,,,Listen to the question and speak out your answer!,1950.9669630527496,None,1950.9341552734377,1952.9669749736786,Einige Eltern haben ihren Töchtern rosa Kleider gekauft.,gekauft,1952.3502853155137,None,1956.283827328682,1957.300549030304,1967.5510733366013,1968.5678479671478,1968.9678690433502,None,./data/Subject_10/Session_00/Exp_data/2020_Aug_03_1228/rec_QA_run_02_block_001_trial_022.wav,10,00,English,A2,True,False,True,False,False,True,True,True,True,True,True,True,No,2,No,No,No,No,2020_Aug_03_1228,nibs_stage_1,3.2.3,60.02401358957369,
2,0,2,0,,,,,1,0,1,0,23,0,23,0,,,,,,,,,,,,,,,,,,,,,,,,,,,,,,,,,,,,,,,,,,,,,,,,,Listen to the question and speak out your answer!,1972.0018548965454,None,1971.9685724258425,1974.0014379024506,Aus Fehlern kann man lernen.,lernen,1973.3847134351731,None,1975.518185400963,None,1988.58551838398,None,1990.0022690296173,None,./data/Subject_10/Session_00/Exp_data/2020_Aug_03_1228/rec_QA_run_02_block_001_trial_023.wav,10,00,English,A2,True,False,True,False,False,True,True,True,True,True,True,True,No,2,No,No,No,No,2020_Aug_03_1228,nibs_stage_1,3.2.3,60.02401358957369,
2,0,2,0,,,,,1,0,1,0,24,0,24,0,,,,,,,,,,,,,,,,,,,,,,,,,,,,,,,,,,,,,,,,,,,,,,,,,Listen to the question and speak out your answer!,1993.0360860824585,None,1993.0196986913681,1995.0358328819275,Der frühe Vogel kann den Wurm fangen.,fangen,1994.4191634893418,1996.7361838817596,1997.1193154096604,None,2009.6201014757157,None,2011.0367040634155,None,./data/Subject_10/Session_00/Exp_data/2020_Aug_03_1228/rec_QA_run_02_block_001_trial_024.wav,10,00,English,A2,True,False,True,False,False,True,True,True,True,True,True,True,No,2,No,No,No,No,2020_Aug_03_1228,nibs_stage_1,3.2.3,60.02401358957369,
