run.thisRepN,run.thisTrialN,run.thisN,run.thisIndex,QA_block.thisRepN,QA_block.thisTrialN,QA_block.thisN,QA_block.thisIndex,QA_trial.thisRepN,QA_trial.thisTrialN,QA_trial.thisN,QA_trial.thisIndex,fade_in_text.text,fade_in_text.started,fade_in_text.stopped,RS_intro_title.started,RS_intro_title.stopped,RS_intro_text.text,RS_intro_text.started,RS_intro_text.stopped,RS_intro_audio.started,RS_intro_audio.stopped,RS_rec_text.text,RS_rec_text.started,RS_rec_text.stopped,Pause_cont.started,Pause_cont.stopped,QA_intro_title.started,QA_intro_title.stopped,QA_intro_text.text,QA_intro_text.started,QA_intro_text.stopped,QA_intro_audio.started,QA_intro_audio.stopped,QA_intro_cont.started,QA_intro_cont.stopped,QA_rec_text.text,QA_rec_text.started,QA_rec_text.stopped,QA_rec_beep_hint.started,QA_rec_beep_hint.stopped,QA_rec_question.sen_text,QA_rec_question.cen_text,QA_rec_question.started,QA_rec_question.stopped,QA_rec_beep_start.started,QA_rec_beep_start.stopped,QA_rec_beep_end.started,QA_rec_beep_end.stopped,QA_rec_break.started,QA_rec_break.stopped,filename,participant,session,First language,German level,Full_screen,Instruction,Intro,Artifact,Cali_pre,Fade_in_out,Artifact_within,Resting_State,QA,Pause,Cali_post,End,Breakpoint_Cali_pre_trial,Breakpoint_Run,Breakpoint_RS_block,Breakpoint_QA_block,Breakpoint_QA_trial,Breakpoint_Cali_post_trial,date,expName,psychopyVersion,frameRate,
1,0,1,0,0,0,0,0,0,0,0,0,Please remain seated until further instruction via the earphone.,60.68324398994446,None,271.1275689601898,None," - Task: Keep seated and relaxed with either      
             opening or closing eyes                  
 - Beep sound with decreasing pitch: Block finish 
",271.1275689601898,None,271.1279320240021,None,"Please keep relaxed and close your eyes.
",294.14544701576233,474.15512704849243,477.5551619529724,None,492.9731798171997,None," - Task: Listen to the question& Speak out answer 
 - Melodious beep sound: Trial start              
 - Silent sound (blank): censored word            
 - Beep sound with increasing pitch: Rec. start   
 - Beep sound with decreasing pitch: Rec. finish  
",492.9731798171997,None,492.97288558483126,None,532.3583579063416,None,Listen to the question and speak out your answer!,535.4248600006104,None,535.4086560487748,537.4084839820862,Fabienne ist Ärztin und arbeitet im Krankenhaus.,arbeitet,536.8083612680435,540.0751140117645,540.4918031454087,None,552.009144282341,None,553.4091470241547,554.4093689918518,./data/Subject_10/Session_02/Exp_data/2020_Aug_11_1131/rec_QA_run_01_block_000_trial_000.wav,10,02,English,A2,True,False,True,False,False,True,True,True,True,True,True,True,No,1,No,No,No,No,2020_Aug_11_1131,nibs_stage_1,3.2.3,60.025817531305904,
1,0,1,0,0,0,0,0,1,0,1,0,,,,,,,,,,,,,,,,,,,,,,,,,Listen to the question and speak out your answer!,556.4595079421997,None,556.4595693826676,558.4599149227142,Wir müssen jemanden mit mehr Erfahrung für diese wichtige Position einstellen.,einstellen,557.8429891824723,562.2764148712158,562.6931762456894,None,573.0437521696091,None,574.4438078403473,575.4438669681549,./data/Subject_10/Session_02/Exp_data/2020_Aug_11_1131/rec_QA_run_01_block_000_trial_001.wav,10,02,English,A2,True,False,True,False,False,True,True,True,True,True,True,True,No,1,No,No,No,No,2020_Aug_11_1131,nibs_stage_1,3.2.3,60.025817531305904,
1,0,1,0,0,0,0,0,2,0,2,0,,,,,,,,,,,,,,,,,,,,,,,,,Listen to the question and speak out your answer!,577.5105078220367,None,577.5107552289963,579.5107519626617,"Wenn Sie mit dem Vertrag nicht zufrieden sind, können Sie ihn vor seinem Ablauf kündigen.",kündigen,578.877388215065,583.5942230224609,584.0109882116318,None,594.0782222509384,595.0782680511475,595.4782538414001,596.4783408641815,./data/Subject_10/Session_02/Exp_data/2020_Aug_11_1131/rec_QA_run_01_block_000_trial_002.wav,10,02,English,A2,True,False,True,False,False,True,True,True,True,True,True,True,No,1,No,No,No,No,2020_Aug_11_1131,nibs_stage_1,3.2.3,60.025817531305904,
1,0,1,0,0,0,0,0,3,0,3,0,,,,,,,,,,,,,,,,,,,,,,,,,Listen to the question and speak out your answer!,598.5449738502502,None,598.5285269737244,600.5283019542694,Salz und Pfeffer machten das Steak genießbar.,machten,599.9116103410721,602.9117670059204,603.3284492254257,None,615.1124262571335,None,616.512482881546,617.512454032898,./data/Subject_10/Session_02/Exp_data/2020_Aug_11_1131/rec_QA_run_01_block_000_trial_003.wav,10,02,English,A2,True,False,True,False,False,True,True,True,True,True,True,True,No,1,No,No,No,No,2020_Aug_11_1131,nibs_stage_1,3.2.3,60.025817531305904,
1,0,1,0,0,0,0,0,4,0,4,0,,,,,,,,,,,,,,,,,,,,,,,,,Listen to the question and speak out your answer!,619.5959830284119,None,619.5794283628464,621.5794079303741,"Sie hat Schlafmittel genommen, damit sie gut schlafen kann.",schlafen,620.9626343011856,None,624.9461562395096,625.9463260173798,636.1636681318283,None,637.5635919570923,638.5636339187622,./data/Subject_10/Session_02/Exp_data/2020_Aug_11_1131/rec_QA_run_01_block_000_trial_004.wav,10,02,English,A2,True,False,True,False,False,True,True,True,True,True,True,True,No,1,No,No,No,No,2020_Aug_11_1131,nibs_stage_1,3.2.3,60.025817531305904,
1,0,1,0,0,0,0,0,5,0,5,0,,,,,,,,,,,,,,,,,,,,,,,,,Listen to the question and speak out your answer!,640.6305298805237,None,640.6140520095826,642.6138298511505,Er legte das Messer und die Gabel neben den Teller.,legte,641.9971561193466,645.063985824585,645.4806711435318,None,657.1979462862015,658.197919845581,658.5980188846588,659.5980758666992,./data/Subject_10/Session_02/Exp_data/2020_Aug_11_1131/rec_QA_run_01_block_000_trial_005.wav,10,02,English,A2,True,False,True,False,False,True,True,True,True,True,True,True,No,1,No,No,No,No,2020_Aug_11_1131,nibs_stage_1,3.2.3,60.025817531305904,
1,0,1,0,0,0,0,0,6,0,6,0,,,,,,,,,,,,,,,,,,,,,,,,,Listen to the question and speak out your answer!,661.6649978160858,None,661.6650623559952,663.6648788452148,"Das Essen riecht so gut, was kochst du heute?",kochst,663.0482601881027,None,666.2484891176224,None,678.2490572690964,None,679.6491529941559,680.6491849422455,./data/Subject_10/Session_02/Exp_data/2020_Aug_11_1131/rec_QA_run_01_block_000_trial_006.wav,10,02,English,A2,True,False,True,False,False,True,True,True,True,True,True,True,No,1,No,No,No,No,2020_Aug_11_1131,nibs_stage_1,3.2.3,60.025817531305904,
1,0,1,0,0,0,0,0,7,0,7,0,,,,,,,,,,,,,,,,,,,,,,,,,Listen to the question and speak out your answer!,682.6993470191956,None,682.682717037201,684.6827409267426,"Die Fische leben in Flüssen , Seen und Meeren.",leben,684.0827083349228,None,687.7162382364273,None,699.283757185936,700.2837829589844,700.6838178634644,701.6838529109955,./data/Subject_10/Session_02/Exp_data/2020_Aug_11_1131/rec_QA_run_01_block_000_trial_007.wav,10,02,English,A2,True,False,True,False,False,True,True,True,True,True,True,True,No,1,No,No,No,No,2020_Aug_11_1131,nibs_stage_1,3.2.3,60.025817531305904,
1,0,1,0,0,0,0,0,8,0,8,0,,,,,,,,,,,,,,,,,,,,,,,,,Listen to the question and speak out your answer!,703.734354019165,None,703.7340533018113,705.7340888977051,"Da er sehr reich ist, hat der Club ihn als Mitglied aufgenommen. ",aufgenommen,705.1007132291794,708.8009159564972,709.2176031827927,None,720.3017012834549,None,721.7015960216522,722.7016248703003,./data/Subject_10/Session_02/Exp_data/2020_Aug_11_1131/rec_QA_run_01_block_000_trial_008.wav,10,02,English,A2,True,False,True,False,False,True,True,True,True,True,True,True,No,1,No,No,No,No,2020_Aug_11_1131,nibs_stage_1,3.2.3,60.025817531305904,
1,0,1,0,0,0,0,0,9,0,9,0,,,,,,,,,,,,,,,,,,,,,,,,,Listen to the question and speak out your answer!,724.7692828178406,None,724.7687482118607,726.7686219215393,Das Staatstheater ist s ist zu alt und wird dieses Jahr renoviert.,renoviert,726.1518621206284,730.1686909198761,730.5686952829361,None,741.3528682947159,742.3526668548584,742.7527508735657,743.7527370452881,./data/Subject_10/Session_02/Exp_data/2020_Aug_11_1131/rec_QA_run_01_block_000_trial_009.wav,10,02,English,A2,True,False,True,False,False,True,True,True,True,True,True,True,No,1,No,No,No,No,2020_Aug_11_1131,nibs_stage_1,3.2.3,60.025817531305904,
1,0,1,0,0,0,0,0,10,0,10,0,,,,,,,,,,,,,,,,,,,,,,,,,Listen to the question and speak out your answer!,745.8364689350128,None,745.8198603868485,747.8196449279785,Ich kann nicht mit dem Auto fahren.,fahren,747.2029452085495,None,749.6030962228775,None,762.4038882017136,763.4037618637085,763.8038198947906,764.8038618564606,./data/Subject_10/Session_02/Exp_data/2020_Aug_11_1131/rec_QA_run_01_block_000_trial_010.wav,10,02,English,A2,True,False,True,False,False,True,True,True,True,True,True,True,No,1,No,No,No,No,2020_Aug_11_1131,nibs_stage_1,3.2.3,60.025817531305904,
1,0,1,0,0,0,0,0,11,0,11,0,,,,,,,,,,,,,,,,,,,,,,,,,Listen to the question and speak out your answer!,766.8873879909515,None,766.8708984136582,768.8707480430603,Das Flugzeug fliegt den vorgeschriebenen Kurs.,fliegt,768.2540571451187,None,771.6209442377091,None,783.4549832105637,None,784.8549158573151,785.8548698425293,./data/Subject_10/Session_02/Exp_data/2020_Aug_11_1131/rec_QA_run_01_block_000_trial_011.wav,10,02,English,A2,True,False,True,False,False,True,True,True,True,True,True,True,No,1,No,No,No,No,2020_Aug_11_1131,nibs_stage_1,3.2.3,60.025817531305904,
1,0,1,0,0,0,0,0,12,0,12,0,,,,,,,,,,,,,,,,,,,,,,,,,Listen to the question and speak out your answer!,787.9220519065857,None,787.9053949832917,789.9051668643951,Meine Uhr zeigt die aktuelle Uhrzeit in Berlin und New York an.,zeigt,789.3058001756668,793.2553889751434,793.6553642511368,794.6557960510254,804.5059561491013,805.5060248374939,805.9060039520264,806.9059598445892,./data/Subject_10/Session_02/Exp_data/2020_Aug_11_1131/rec_QA_run_01_block_000_trial_012.wav,10,02,English,A2,True,False,True,False,False,True,True,True,True,True,True,True,No,1,No,No,No,No,2020_Aug_11_1131,nibs_stage_1,3.2.3,60.025817531305904,
1,0,1,0,0,0,0,0,13,0,13,0,,,,,,,,,,,,,,,,,,,,,,,,,Listen to the question and speak out your answer!,808.9727909564972,None,808.956160235405,810.9562950134277,"Wenn es am Sonntag Morgen regnet, bleibt Franz den ganzen Tag im Bett.",bleibt,810.3397462129593,None,814.8731293439865,None,825.5405533075333,None,826.9405589103699,827.9405179023743,./data/Subject_10/Session_02/Exp_data/2020_Aug_11_1131/rec_QA_run_01_block_000_trial_013.wav,10,02,English,A2,True,False,True,False,False,True,True,True,True,True,True,True,No,1,No,No,No,No,2020_Aug_11_1131,nibs_stage_1,3.2.3,60.025817531305904,
1,0,1,0,0,0,0,0,14,0,14,0,,,,,,,,,,,,,,,,,,,,,,,,,Listen to the question and speak out your answer!,830.0238358974457,None,830.0076002359391,832.0071640014648,"Um den Sachverhalt zu erklären, fehlten ihm die treffenden Vokabeln.",erklären,831.390448307991,835.5739288330078,835.990624165535,836.9907560348511,846.5911912679672,None,847.991327047348,848.9915459156036,./data/Subject_10/Session_02/Exp_data/2020_Aug_11_1131/rec_QA_run_01_block_000_trial_014.wav,10,02,English,A2,True,False,True,False,False,True,True,True,True,True,True,True,No,1,No,No,No,No,2020_Aug_11_1131,nibs_stage_1,3.2.3,60.025817531305904,
1,0,1,0,0,0,0,0,15,0,15,0,,,,,,,,,,,,,,,,,,,,,,,,,Listen to the question and speak out your answer!,851.0587549209595,None,851.0415839672089,853.0415968894958,Die Kinder haben ihrer Mutter im Haushalt geholfen.,geholfen,852.4414973020554,855.2918100357056,855.6917493104935,856.6919310092926,867.6425812005997,868.6426529884338,869.0426769256592,870.0429399013519,./data/Subject_10/Session_02/Exp_data/2020_Aug_11_1131/rec_QA_run_01_block_000_trial_015.wav,10,02,English,A2,True,False,True,False,False,True,True,True,True,True,True,True,No,1,No,No,No,No,2020_Aug_11_1131,nibs_stage_1,3.2.3,60.025817531305904,
1,0,1,0,0,0,0,0,16,0,16,0,,,,,,,,,,,,,,,,,,,,,,,,,Listen to the question and speak out your answer!,872.1097860336304,None,872.0931402921677,874.0929460525513,Auf einer CD sind der Musik oder gesprochener Text gespeichert.,gespeichert,873.4762873411179,None,877.8765241861344,None,888.6770682096482,None,890.0771079063416,891.0771369934082,./data/Subject_10/Session_02/Exp_data/2020_Aug_11_1131/rec_QA_run_01_block_000_trial_016.wav,10,02,English,A2,True,False,True,False,False,True,True,True,True,True,True,True,No,1,No,No,No,No,2020_Aug_11_1131,nibs_stage_1,3.2.3,60.025817531305904,
1,0,1,0,0,0,0,0,17,0,17,0,,,,,,,,,,,,,,,,,,,,,,,,,Listen to the question and speak out your answer!,893.1605899333954,None,893.1448072671891,895.1604650020599,In der Bibliothek kann man viele seltsame Bücher lesen.,lesen,894.5437693357468,None,898.4106461763382,899.4106159210205,909.7448282003403,None,911.1450598239899,912.1448378562927,./data/Subject_10/Session_02/Exp_data/2020_Aug_11_1131/rec_QA_run_01_block_000_trial_017.wav,10,02,English,A2,True,False,True,False,False,True,True,True,True,True,True,True,No,1,No,No,No,No,2020_Aug_11_1131,nibs_stage_1,3.2.3,60.025817531305904,
1,0,1,0,0,0,0,0,18,0,18,0,,,,,,,,,,,,,,,,,,,,,,,,,Listen to the question and speak out your answer!,914.2120089530945,None,914.1950382471085,916.1949269771576,Das iPhone wurde von Kalifornien entworfen und in China hergestellt. ,hergestellt,915.5950062036515,919.9951620101929,920.3951391935349,None,930.8124742269516,None,932.2293179035187,None,./data/Subject_10/Session_02/Exp_data/2020_Aug_11_1131/rec_QA_run_01_block_000_trial_018.wav,10,02,English,A2,True,False,True,False,False,True,True,True,True,True,True,True,No,1,No,No,No,No,2020_Aug_11_1131,nibs_stage_1,3.2.3,60.025817531305904,
1,0,1,0,0,0,0,0,19,0,19,0,,,,,,,,,,,,,,,,,,,,,,,,,Listen to the question and speak out your answer!,935.2642600536346,None,935.2294220447541,937.2627658843994,"Meine Fenster sind schmutzig, ich muss sie putzen.",putzen,936.6462151765824,939.4962420463562,939.8794841527939,None,951.8468951940537,952.8635740280151,953.26358294487,None,./data/Subject_10/Session_02/Exp_data/2020_Aug_11_1131/rec_QA_run_01_block_000_trial_019.wav,10,02,English,A2,True,False,True,False,False,True,True,True,True,True,True,True,No,1,No,No,No,No,2020_Aug_11_1131,nibs_stage_1,3.2.3,60.025817531305904,
1,0,1,0,0,0,0,0,20,0,20,0,,,,,,,,,,,,,,,,,,,,,,,,,Listen to the question and speak out your answer!,956.2975649833679,None,956.2805194139481,958.2972228527069,Der Wirkstoff im Kaffee heißt Koffein.,heißt,957.6805052518845,None,960.6139981508255,None,972.8812422513962,None,974.2981779575348,None,./data/Subject_10/Session_02/Exp_data/2020_Aug_11_1131/rec_QA_run_01_block_000_trial_020.wav,10,02,English,A2,True,False,True,False,False,True,True,True,True,True,True,True,No,1,No,No,No,No,2020_Aug_11_1131,nibs_stage_1,3.2.3,60.025817531305904,
1,0,1,0,0,0,0,0,21,0,21,0,,,,,,,,,,,,,,,,,,,,,,,,,Listen to the question and speak out your answer!,977.3649518489838,None,977.3482412576676,979.3648989200592,Wir sollten das Menü auf ein grünes Blatt Papier drucken.,drucken,978.7148761510849,None,982.5484852552414,None,993.915691113472,994.9324429035187,995.3324568271637,None,./data/Subject_10/Session_02/Exp_data/2020_Aug_11_1131/rec_QA_run_01_block_000_trial_021.wav,10,02,English,A2,True,False,True,False,False,True,True,True,True,True,True,True,No,1,No,No,No,No,2020_Aug_11_1131,nibs_stage_1,3.2.3,60.025817531305904,
1,0,1,0,0,0,0,0,22,0,22,0,,,,,,,,,,,,,,,,,,,,,,,,,Listen to the question and speak out your answer!,998.399493932724,None,998.382669377327,1000.3993499279022,Der Junge hat das Mädchen zum Kaffee eingeladen.,eingeladen,999.7826621294022,None,1003.0494873285294,1004.0662100315094,1014.9834911584854,None,1016.4002079963684,None,./data/Subject_10/Session_02/Exp_data/2020_Aug_11_1131/rec_QA_run_01_block_000_trial_022.wav,10,02,English,A2,True,False,True,False,False,True,True,True,True,True,True,True,No,1,No,No,No,No,2020_Aug_11_1131,nibs_stage_1,3.2.3,60.025817531305904,
1,0,1,0,0,0,0,0,23,0,23,0,,,,,,,,,,,,,,,,,,,,,,,,,Listen to the question and speak out your answer!,1019.467267036438,None,1019.450445342064,1021.467139005661,An der nächsten Kreuzung müssen Sie rechts abbiegen.,abbiegen,1020.8504283189774,None,1024.0507242441176,None,1036.0512373208999,1037.0679318904877,1037.4678988456726,None,./data/Subject_10/Session_02/Exp_data/2020_Aug_11_1131/rec_QA_run_01_block_000_trial_023.wav,10,02,English,A2,True,False,True,False,False,True,True,True,True,True,True,True,No,1,No,No,No,No,2020_Aug_11_1131,nibs_stage_1,3.2.3,60.025817531305904,
1,0,1,0,0,0,0,0,24,0,24,0,,,,,,,,,,,,,,,,,,,,,,,,,Listen to the question and speak out your answer!,1040.5033898353577,None,1040.4848672628402,1042.5015518665314,Wie hoch kosten der Wahren ？,kosten,1041.884979224205,1043.7016069889069,1044.0849842786788,None,1057.0856332540511,None,1058.502415895462,None,./data/Subject_10/Session_02/Exp_data/2020_Aug_11_1131/rec_QA_run_01_block_000_trial_024.wav,10,02,English,A2,True,False,True,False,False,True,True,True,True,True,True,True,No,1,No,No,No,No,2020_Aug_11_1131,nibs_stage_1,3.2.3,60.025817531305904,
1,0,1,0,0,0,0,0,,,,,,,,,,,,,,,,,,1062.552717924118,None,,,,,,,,,,,,,,,,,,,,,,,,,,10,02,English,A2,True,False,True,False,False,True,True,True,True,True,True,True,No,1,No,No,No,No,2020_Aug_11_1131,nibs_stage_1,3.2.3,60.025817531305904,
1,0,1,0,1,0,1,0,0,0,0,0,,,,,,,,,,,,,,,,,,,,,,,,,Listen to the question and speak out your answer!,1080.5210349559784,None,1080.5037173986434,1082.520337820053,"Keine Sorge, ich werde mich um Ihr Kind kümmern.",kümmern,1081.9036841154098,1084.7540078163147,1085.137128329277,1086.15381193161,1097.104412293434,None,1098.5211770534515,None,./data/Subject_10/Session_02/Exp_data/2020_Aug_11_1131/rec_QA_run_01_block_001_trial_000.wav,10,02,English,A2,True,False,True,False,False,True,True,True,True,True,True,True,No,1,No,No,No,No,2020_Aug_11_1131,nibs_stage_1,3.2.3,60.025817531305904,
1,0,1,0,1,0,1,0,1,0,1,0,,,,,,,,,,,,,,,,,,,,,,,,,Listen to the question and speak out your answer!,1101.589252948761,None,1101.5714213132858,1103.5881218910217,Arbeitslos-sein bedeutet: man hat keinen Arbeits-Platz.,bedeutet,1102.971402144432,1106.3882539272308,1106.7716021299361,None,1118.1723391771316,None,1119.588945865631,None,./data/Subject_10/Session_02/Exp_data/2020_Aug_11_1131/rec_QA_run_01_block_001_trial_001.wav,10,02,English,A2,True,False,True,False,False,True,True,True,True,True,True,True,No,1,No,No,No,No,2020_Aug_11_1131,nibs_stage_1,3.2.3,60.025817531305904,
1,0,1,0,1,0,1,0,2,0,2,0,,,,,,,,,,,,,,,,,,,,,,,,,Listen to the question and speak out your answer!,1122.6562778949738,None,1122.6392482995986,1124.6558709144592,Ferdinand Magellan hat als Erster die Welt umsegelt.,umsegelt,1124.0393161535262,None,1127.8060381174087,None,1139.2399792432784,None,1140.656730890274,None,./data/Subject_10/Session_02/Exp_data/2020_Aug_11_1131/rec_QA_run_01_block_001_trial_002.wav,10,02,English,A2,True,False,True,False,False,True,True,True,True,True,True,True,No,1,No,No,No,No,2020_Aug_11_1131,nibs_stage_1,3.2.3,60.025817531305904,
1,0,1,0,1,0,1,0,3,0,3,0,,,,,,,,,,,,,,,,,,,,,,,,,Listen to the question and speak out your answer!,1143.723886013031,None,1143.7070543050766,1145.7235670089722,"Meine Geschichte ist wahr, ich habe keine Lügen erzählt.",erzählt,1145.1069612264632,None,1148.8404731512069,None,1160.307716345787,1161.324481010437,1161.7246379852295,None,./data/Subject_10/Session_02/Exp_data/2020_Aug_11_1131/rec_QA_run_01_block_001_trial_003.wav,10,02,English,A2,True,False,True,False,False,True,True,True,True,True,True,True,No,1,No,No,No,No,2020_Aug_11_1131,nibs_stage_1,3.2.3,60.025817531305904,
1,0,1,0,1,0,1,0,4,0,4,0,,,,,,,,,,,,,,,,,,,,,,,,,Listen to the question and speak out your answer!,1164.7753808498383,None,1164.741410422325,1166.774770975113,"Ich habe eine verletzte Hand, kannst du bitte die Knöpfe meiner Jacke öffnen?",öffnen,1166.157981133461,None,1170.7917461156844,None,1181.3421332597732,None,1182.7589609622955,None,./data/Subject_10/Session_02/Exp_data/2020_Aug_11_1131/rec_QA_run_01_block_001_trial_004.wav,10,02,English,A2,True,False,True,False,False,True,True,True,True,True,True,True,No,1,No,No,No,No,2020_Aug_11_1131,nibs_stage_1,3.2.3,60.025817531305904,
1,0,1,0,1,0,1,0,5,0,5,0,,,,,,,,,,,,,,,,,,,,,,,,,Listen to the question and speak out your answer!,1185.842955827713,None,1185.8092023611068,1187.8425319194794,"Wenn der Vulkan aktiv ist, wird Lava herausfließen.",herausfließen,1187.1925041437148,1190.842689037323,1191.2594933271407,None,1202.393321251869,None,1203.810017824173,None,./data/Subject_10/Session_02/Exp_data/2020_Aug_11_1131/rec_QA_run_01_block_001_trial_005.wav,10,02,English,A2,True,False,True,False,False,True,True,True,True,True,True,True,No,1,No,No,No,No,2020_Aug_11_1131,nibs_stage_1,3.2.3,60.025817531305904,
1,0,1,0,1,0,1,0,6,0,6,0,,,,,,,,,,,,,,,,,,,,,,,,,Listen to the question and speak out your answer!,1206.8941569328308,None,1206.8603202581405,1208.8936529159546,Im Frühling besuchen viele Touristen unserer Hauptstadt.,besuchen,1208.2437822580337,1211.8604559898376,1212.243809199333,None,1223.444304203987,1224.4611070156097,1224.861135005951,None,./data/Subject_10/Session_02/Exp_data/2020_Aug_11_1131/rec_QA_run_01_block_001_trial_006.wav,10,02,English,A2,True,False,True,False,False,True,True,True,True,True,True,True,No,1,No,No,No,No,2020_Aug_11_1131,nibs_stage_1,3.2.3,60.025817531305904,
1,0,1,0,1,0,1,0,7,0,7,0,,,,,,,,,,,,,,,,,,,,,,,,,Listen to the question and speak out your answer!,1227.9451818466187,None,1227.9116083860397,1229.9447610378265,Die Teilnehmer müssen sich im Voraus für den Kurs anmelden.,anmelden,1229.3279552221297,None,1233.1281652212142,None,1244.5288471937179,1245.5457029342651,1245.9455699920654,None,./data/Subject_10/Session_02/Exp_data/2020_Aug_11_1131/rec_QA_run_01_block_001_trial_007.wav,10,02,English,A2,True,False,True,False,False,True,True,True,True,True,True,True,No,1,No,No,No,No,2020_Aug_11_1131,nibs_stage_1,3.2.3,60.025817531305904,
1,0,1,0,1,0,1,0,8,0,8,0,,,,,,,,,,,,,,,,,,,,,,,,,Listen to the question and speak out your answer!,1248.9957509040833,None,1248.9626702547073,1250.9958448410034,"Diese Dame ist US-Bürgerin, wurde aber in Deutschland geboren.",geboren,1250.3791491746902,1254.4294538497925,1254.8127252817153,None,1265.5800432920455,None,1266.9966838359833,None,./data/Subject_10/Session_02/Exp_data/2020_Aug_11_1131/rec_QA_run_01_block_001_trial_008.wav,10,02,English,A2,True,False,True,False,False,True,True,True,True,True,True,True,No,1,No,No,No,No,2020_Aug_11_1131,nibs_stage_1,3.2.3,60.025817531305904,
1,0,1,0,1,0,1,0,9,0,9,0,,,,,,,,,,,,,,,,,,,,,,,,,Listen to the question and speak out your answer!,1270.0143358707428,None,1269.996924114227,1272.0136380195618,In diesem Krankenhaus werden viele Patienten behandelt.,behandelt,1271.3969242334365,None,1275.2637853384017,None,1286.5978922605514,None,1288.014447927475,None,./data/Subject_10/Session_02/Exp_data/2020_Aug_11_1131/rec_QA_run_01_block_001_trial_009.wav,10,02,English,A2,True,False,True,False,False,True,True,True,True,True,True,True,No,1,No,No,No,No,2020_Aug_11_1131,nibs_stage_1,3.2.3,60.025817531305904,
1,0,1,0,1,0,1,0,10,0,10,0,,,,,,,,,,,,,,,,,,,,,,,,,Listen to the question and speak out your answer!,1291.081375837326,None,1291.048035097122,1293.0813870429993,Ich kümmere mich nicht um die Reden der Leute.,kümmere,1292.4313571214675,None,1295.364857172966,1296.3815758228302,1307.6321782827376,None,1309.0490608215332,None,./data/Subject_10/Session_02/Exp_data/2020_Aug_11_1131/rec_QA_run_01_block_001_trial_010.wav,10,02,English,A2,True,False,True,False,False,True,True,True,True,True,True,True,No,1,No,No,No,No,2020_Aug_11_1131,nibs_stage_1,3.2.3,60.025817531305904,
1,0,1,0,1,0,1,0,11,0,11,0,,,,,,,,,,,,,,,,,,,,,,,,,Listen to the question and speak out your answer!,1312.1158020496368,None,1312.0824620246885,1314.1158299446106,Felix muss schon um sechs Uhr früh aufstehen.,aufstehen,1313.4992301225661,1316.383071899414,1316.765971159935,None,1328.6998431444167,None,1330.1166689395905,None,./data/Subject_10/Session_02/Exp_data/2020_Aug_11_1131/rec_QA_run_01_block_001_trial_011.wav,10,02,English,A2,True,False,True,False,False,True,True,True,True,True,True,True,No,1,No,No,No,No,2020_Aug_11_1131,nibs_stage_1,3.2.3,60.025817531305904,
1,0,1,0,1,0,1,0,12,0,12,0,,,,,,,,,,,,,,,,,,,,,,,,,Listen to the question and speak out your answer!,1333.1341149806976,None,1333.10024664402,1335.1337158679962,"Du kannst den Hund streicheln, er wird dich nicht beißen.",beißen,1334.4835812807082,1337.5003888607025,1337.883846259117,1338.9004468917847,1349.6843752622603,None,1351.1010999679565,None,./data/Subject_10/Session_02/Exp_data/2020_Aug_11_1131/rec_QA_run_01_block_001_trial_012.wav,10,02,English,A2,True,False,True,False,False,True,True,True,True,True,True,True,No,1,No,No,No,No,2020_Aug_11_1131,nibs_stage_1,3.2.3,60.025817531305904,
1,0,1,0,1,0,1,0,13,0,13,0,,,,,,,,,,,,,,,,,,,,,,,,,Listen to the question and speak out your answer!,1354.1680419445038,None,1354.1346799850462,1356.1680488586426,Die Blumen in meinem Garten riechen gut.,riechen,1355.5513331651687,1358.0681450366974,1358.4181561231612,None,1370.752141213417,None,1372.1689648628235,None,./data/Subject_10/Session_02/Exp_data/2020_Aug_11_1131/rec_QA_run_01_block_001_trial_013.wav,10,02,English,A2,True,False,True,False,False,True,True,True,True,True,True,True,No,1,No,No,No,No,2020_Aug_11_1131,nibs_stage_1,3.2.3,60.025817531305904,
1,0,1,0,1,0,1,0,14,0,14,0,,,,,,,,,,,,,,,,,,,,,,,,,Listen to the question and speak out your answer!,1375.185789823532,None,1375.1525587797164,1377.185819864273,"Um den Bus noch zu erwischen, musste ich heute Morgen sehr schnell laufen.",laufen,1376.5358612298965,1380.6193339824677,1381.0026671648025,None,1391.7366292238235,None,1393.1533539295197,None,./data/Subject_10/Session_02/Exp_data/2020_Aug_11_1131/rec_QA_run_01_block_001_trial_014.wav,10,02,English,A2,True,False,True,False,False,True,True,True,True,True,True,True,No,1,No,No,No,No,2020_Aug_11_1131,nibs_stage_1,3.2.3,60.025817531305904,
1,0,1,0,1,0,1,0,15,0,15,0,,,,,,,,,,,,,,,,,,,,,,,,,Listen to the question and speak out your answer!,1396.2035930156708,None,1396.1702217817306,1398.2035789489746,"Das Buch war witzig, ich habe stundenlang gelacht.",gelacht,1397.5534603357314,1400.5703899860382,1400.9870862722396,None,1412.7543363332748,None,1414.1710908412933,None,./data/Subject_10/Session_02/Exp_data/2020_Aug_11_1131/rec_QA_run_01_block_001_trial_015.wav,10,02,English,A2,True,False,True,False,False,True,True,True,True,True,True,True,No,1,No,No,No,No,2020_Aug_11_1131,nibs_stage_1,3.2.3,60.025817531305904,
1,0,1,0,1,0,1,0,16,0,16,0,,,,,,,,,,,,,,,,,,,,,,,,,Listen to the question and speak out your answer!,1417.3553018569946,None,1417.3213470220564,1419.3546760082245,"Befristete Verträge enden automatisch, wenn sie nicht erneuert werden.",enden,1418.704644179344,1422.9882209300995,1423.4049741983413,None,1433.9054441213607,None,1435.3222110271454,None,./data/Subject_10/Session_02/Exp_data/2020_Aug_11_1131/rec_QA_run_01_block_001_trial_016.wav,10,02,English,A2,True,False,True,False,False,True,True,True,True,True,True,True,No,1,No,No,No,No,2020_Aug_11_1131,nibs_stage_1,3.2.3,60.025817531305904,
1,0,1,0,1,0,1,0,17,0,17,0,,,,,,,,,,,,,,,,,,,,,,,,,Listen to the question and speak out your answer!,1438.372488975525,None,1438.339204764366,1440.3724880218506,Das Eingreifen des Lehrers beendete den Streit.,beendete,1439.722416138649,1442.8392539024353,1443.222612118721,None,1454.923181271553,None,1456.3399469852448,None,./data/Subject_10/Session_02/Exp_data/2020_Aug_11_1131/rec_QA_run_01_block_001_trial_017.wav,10,02,English,A2,True,False,True,False,False,True,True,True,True,True,True,True,No,1,No,No,No,No,2020_Aug_11_1131,nibs_stage_1,3.2.3,60.025817531305904,
1,0,1,0,1,0,1,0,18,0,18,0,,,,,,,,,,,,,,,,,,,,,,,,,Listen to the question and speak out your answer!,1459.4075348377228,None,1459.3737160682676,1461.4068949222565,Bewegung und gesunde Ernährung gehören zu einer gesunden Lebensweise.,gehören,1460.7903482675551,None,1465.5904462099074,None,1475.9910022974013,None,1477.4078149795532,None,./data/Subject_10/Session_02/Exp_data/2020_Aug_11_1131/rec_QA_run_01_block_001_trial_018.wav,10,02,English,A2,True,False,True,False,False,True,True,True,True,True,True,True,No,1,No,No,No,No,2020_Aug_11_1131,nibs_stage_1,3.2.3,60.025817531305904,
1,0,1,0,1,0,1,0,19,0,19,0,,,,,,,,,,,,,,,,,,,,,,,,,Listen to the question and speak out your answer!,1480.4413118362427,None,1480.407981109619,1482.4414439201355,"Bitte zieh deinen Mantel an, es ist kalt draußen.",zieh,1481.7912971735,None,1485.2916023492812,None,1496.9920792341231,None,1498.4088280200958,None,./data/Subject_10/Session_02/Exp_data/2020_Aug_11_1131/rec_QA_run_01_block_001_trial_019.wav,10,02,English,A2,True,False,True,False,False,True,True,True,True,True,True,True,No,1,No,No,No,No,2020_Aug_11_1131,nibs_stage_1,3.2.3,60.025817531305904,
1,0,1,0,1,0,1,0,20,0,20,0,,,,,,,,,,,,,,,,,,,,,,,,,Listen to the question and speak out your answer!,1501.459902048111,None,1501.4425351142881,1503.4590940475464,Der Konzern kontrolliert die Mehrheit der Aktion.,kontrolliert,1502.842431282997,None,1506.20926425457,None,1518.0432312250136,None,1519.459939956665,None,./data/Subject_10/Session_02/Exp_data/2020_Aug_11_1131/rec_QA_run_01_block_001_trial_020.wav,10,02,English,A2,True,False,True,False,False,True,True,True,True,True,True,True,No,1,No,No,No,No,2020_Aug_11_1131,nibs_stage_1,3.2.3,60.025817531305904,
1,0,1,0,1,0,1,0,21,0,21,0,,,,,,,,,,,,,,,,,,,,,,,,,Listen to the question and speak out your answer!,1522.477458000183,None,1522.4601950168608,1524.4768810272217,Der Baum hängt voller Früchte.,hängt,1523.8600821256637,None,1526.160293316841,None,1539.0609593153,None,1540.478001832962,None,./data/Subject_10/Session_02/Exp_data/2020_Aug_11_1131/rec_QA_run_01_block_001_trial_021.wav,10,02,English,A2,True,False,True,False,False,True,True,True,True,True,True,True,No,1,No,No,No,No,2020_Aug_11_1131,nibs_stage_1,3.2.3,60.025817531305904,
1,0,1,0,1,0,1,0,22,0,22,0,,,,,,,,,,,,,,,,,,,,,,,,,Listen to the question and speak out your answer!,1543.52796792984,None,1543.4946427106856,1545.5278928279877,Sie kümmert sich nur um ihre eigenen Angelegenheiten.,kümmert,1544.8779501676559,None,1548.5114662408828,None,1560.0787172079085,1561.0954580307007,1561.4957728385925,None,./data/Subject_10/Session_02/Exp_data/2020_Aug_11_1131/rec_QA_run_01_block_001_trial_022.wav,10,02,English,A2,True,False,True,False,False,True,True,True,True,True,True,True,No,1,No,No,No,No,2020_Aug_11_1131,nibs_stage_1,3.2.3,60.025817531305904,
1,0,1,0,1,0,1,0,23,0,23,0,,,,,,,,,,,,,,,,,,,,,,,,,Listen to the question and speak out your answer!,1564.5475249290466,None,1564.5291270732878,1566.545650959015,"Morgen will er probieren, ob seine Theorie auch in der Praxis stimmt.",probieren,1565.9290473222732,None,1570.2959441900252,None,1581.1298491716384,None,1582.546793937683,None,./data/Subject_10/Session_02/Exp_data/2020_Aug_11_1131/rec_QA_run_01_block_001_trial_023.wav,10,02,English,A2,True,False,True,False,False,True,True,True,True,True,True,True,No,1,No,No,No,No,2020_Aug_11_1131,nibs_stage_1,3.2.3,60.025817531305904,
1,0,1,0,1,0,1,0,24,0,24,0,,,,,,,,,,,,,,,,,,,,,,,,,Listen to the question and speak out your answer!,1585.6140429973602,None,1585.5803439140318,1587.6135249137878,Sam trinkt gerne eine Tasse Kaffee mit einem Stück Kuchen,trinkt,1586.9968433141707,None,1590.9302673101424,None,1602.197600340843,None,1603.6143770217896,None,./data/Subject_10/Session_02/Exp_data/2020_Aug_11_1131/rec_QA_run_01_block_001_trial_024.wav,10,02,English,A2,True,False,True,False,False,True,True,True,True,True,True,True,No,1,No,No,No,No,2020_Aug_11_1131,nibs_stage_1,3.2.3,60.025817531305904,
