run.thisRepN,run.thisTrialN,run.thisN,run.thisIndex,QA_block.thisRepN,QA_block.thisTrialN,QA_block.thisN,QA_block.thisIndex,QA_trial.thisRepN,QA_trial.thisTrialN,QA_trial.thisN,QA_trial.thisIndex,fade_in_text.text,fade_in_text.started,fade_in_text.stopped,RS_intro_title.started,RS_intro_title.stopped,RS_intro_text.text,RS_intro_text.started,RS_intro_text.stopped,RS_intro_audio.started,RS_intro_audio.stopped,RS_rec_text.text,RS_rec_text.started,RS_rec_text.stopped,Pause_cont.started,Pause_cont.stopped,QA_intro_title.started,QA_intro_title.stopped,QA_intro_text.text,QA_intro_text.started,QA_intro_text.stopped,QA_intro_audio.started,QA_intro_audio.stopped,QA_intro_cont.started,QA_intro_cont.stopped,QA_rec_text.text,QA_rec_text.started,QA_rec_text.stopped,QA_rec_beep_hint.started,QA_rec_beep_hint.stopped,QA_rec_question.sen_text,QA_rec_question.cen_text,QA_rec_question.started,QA_rec_question.stopped,QA_rec_beep_start.started,QA_rec_beep_start.stopped,QA_rec_beep_end.started,QA_rec_beep_end.stopped,QA_rec_break.started,QA_rec_break.stopped,filename,participant,session,First language,German level,Full_screen,Instruction,Intro,Artifact,Cali_pre,Fade_in_out,Artifact_within,Resting_State,QA,Pause,Cali_post,End,Breakpoint_Cali_pre_trial,Breakpoint_Run,Breakpoint_RS_block,Breakpoint_QA_block,Breakpoint_QA_trial,Breakpoint_Cali_post_trial,date,expName,psychopyVersion,frameRate,
1,0,1,0,0,0,0,0,0,0,0,0,Please remain seated until further instruction via the earphone.,89.03252100944519,None,299.4934000968933,None," - Task: Keep seated and relaxed with either      
             opening or closing eyes                  
 - Beep sound with decreasing pitch: Block finish 
",299.4934000968933,None,299.4801782846451,None,"Please keep relaxed and open your eyes.
Note: Blinking is allowed.",322.511283159256,502.52023816108704,505.92070293426514,None,519.9378740787506,None," - Task: Listen to the question& Speak out answer 
 - Melodious beep sound: Trial start              
 - Silent sound (blank): censored word            
 - Beep sound with increasing pitch: Rec. start   
 - Beep sound with decreasing pitch: Rec. finish  
",519.9378740787506,None,519.9264292001724,None,559.3399341106415,None,Listen to the question and speak out your answer!,562.4235510826111,None,562.4120683193206,564.4235179424286,Er hilft der alten Frau beim Einsteigen ins Auto.,hilft,563.7902104139328,566.9736759662628,567.3903884172439,568.3904280662537,578.9914013624191,None,580.3912799358368,581.391303062439,./data/Subject_09/Session_01/Exp_data/2020_Aug_06_1744/rec_QA_run_01_block_000_trial_000.wav,09,01,English,A2,True,False,True,False,False,True,True,True,True,True,True,True,No,1,No,No,No,No,2020_Aug_06_1744,nibs_stage_1,3.2.3,60.03801845956531,
1,0,1,0,0,0,0,0,1,0,1,0,,,,,,,,,,,,,,,,,,,,,,,,,Listen to the question and speak out your answer!,583.4582650661469,None,583.4452236652373,585.4581351280212,Er verwendet einen Bleistift auf der Wand zu malen.,malen,584.8414885282516,587.8416180610657,588.2417244195938,None,600.0422984838485,None,601.4422640800476,602.4423780441284,./data/Subject_09/Session_01/Exp_data/2020_Aug_06_1744/rec_QA_run_01_block_000_trial_001.wav,09,01,English,A2,True,False,True,False,False,True,True,True,True,True,True,True,No,1,No,No,No,No,2020_Aug_06_1744,nibs_stage_1,3.2.3,60.03801845956531,
1,0,1,0,0,0,0,0,2,0,2,0,,,,,,,,,,,,,,,,,,,,,,,,,Listen to the question and speak out your answer!,604.5095250606537,None,604.4960329771042,606.5092861652374,"Ich empfehle dieses Buch jedem, der an Geschichte interessiert ist.",empfehle,605.8759514570236,609.9261291027069,610.3428084135055,None,621.076717543602,None,622.4770240783691,623.4768130779266,./data/Subject_09/Session_01/Exp_data/2020_Aug_06_1744/rec_QA_run_01_block_000_trial_002.wav,09,01,English,A2,True,False,True,False,False,True,True,True,True,True,True,True,No,1,No,No,No,No,2020_Aug_06_1744,nibs_stage_1,3.2.3,60.03801845956531,
1,0,1,0,0,0,0,0,3,0,3,0,,,,,,,,,,,,,,,,,,,,,,,,,Listen to the question and speak out your answer!,625.5434889793396,None,625.530430650711,627.5436840057373,Sonja nimmt ihren Tee mit Milch und Zucker.,nimmt,626.9269913911819,None,630.0605184316635,None,642.1278313875198,None,643.5278360843658,644.5278069972992,./data/Subject_09/Session_01/Exp_data/2020_Aug_06_1744/rec_QA_run_01_block_000_trial_003.wav,09,01,English,A2,True,False,True,False,False,True,True,True,True,True,True,True,No,1,No,No,No,No,2020_Aug_06_1744,nibs_stage_1,3.2.3,60.03801845956531,
1,0,1,0,0,0,0,0,4,0,4,0,,,,,,,,,,,,,,,,,,,,,,,,,Listen to the question and speak out your answer!,646.5782361030579,None,646.564765548706,648.578122138977,Ich möchte gerne ein Zimmer im Hilton-Hotel reservieren.,reservieren,647.9447623968124,651.2116379737854,651.611661362648,None,663.1455563783645,None,664.5456039905548,665.5456640720367,./data/Subject_09/Session_01/Exp_data/2020_Aug_06_1744/rec_QA_run_01_block_000_trial_004.wav,09,01,English,A2,True,False,True,False,False,True,True,True,True,True,True,True,No,1,No,No,No,No,2020_Aug_06_1744,nibs_stage_1,3.2.3,60.03801845956531,
1,0,1,0,0,0,0,0,5,0,5,0,,,,,,,,,,,,,,,,,,,,,,,,,Listen to the question and speak out your answer!,667.5957839488983,None,667.5825862169265,669.5957880020142,Ich kann endlich den Namen dieser französischen Stadt aussprechen.,aussprechen,668.9625643968582,672.5627520084381,672.9794165372848,None,684.1633114099502,None,685.5633311271667,686.5634231567383,./data/Subject_09/Session_01/Exp_data/2020_Aug_06_1744/rec_QA_run_01_block_000_trial_005.wav,09,01,English,A2,True,False,True,False,False,True,True,True,True,True,True,True,No,1,No,No,No,No,2020_Aug_06_1744,nibs_stage_1,3.2.3,60.03801845956531,
1,0,1,0,0,0,0,0,6,0,6,0,,,,,,,,,,,,,,,,,,,,,,,,,Listen to the question and speak out your answer!,688.6468830108643,None,688.6337299585342,690.6471381187439,"Es macht Spaß, mit Freunden philosophische Fragen zu diskutieren.",diskutieren,690.0136744260788,694.213870048523,694.6138705492019,None,705.2144133329391,None,706.6144490242004,707.6145429611206,./data/Subject_09/Session_01/Exp_data/2020_Aug_06_1744/rec_QA_run_01_block_000_trial_006.wav,09,01,English,A2,True,False,True,False,False,True,True,True,True,True,True,True,No,1,No,No,No,No,2020_Aug_06_1744,nibs_stage_1,3.2.3,60.03801845956531,
1,0,1,0,0,0,0,0,7,0,7,0,,,,,,,,,,,,,,,,,,,,,,,,,Listen to the question and speak out your answer!,709.6980509757996,None,709.684844994545,711.698114156723,"Nur wenn mein Haar schmutzig ist, werde ich es bürsten.",bürsten,711.0647203207016,714.09818816185,714.5149003744125,None,726.2655255079269,727.2654650211334,727.6654739379883,728.6656169891357,./data/Subject_09/Session_01/Exp_data/2020_Aug_06_1744/rec_QA_run_01_block_000_trial_007.wav,09,01,English,A2,True,False,True,False,False,True,True,True,True,True,True,True,No,1,No,No,No,No,2020_Aug_06_1744,nibs_stage_1,3.2.3,60.03801845956531,
1,0,1,0,0,0,0,0,8,0,8,0,,,,,,,,,,,,,,,,,,,,,,,,,Listen to the question and speak out your answer!,730.7498090267181,None,730.7359299898147,732.7491509914398,Was bedeutet Pressefreiheit für dich?,bedeutet,732.115911412239,734.3493421077728,734.7494463205337,None,747.3165294408798,None,748.7166559696198,749.7168731689453,./data/Subject_09/Session_01/Exp_data/2020_Aug_06_1744/rec_QA_run_01_block_000_trial_008.wav,09,01,English,A2,True,False,True,False,False,True,True,True,True,True,True,True,No,1,No,No,No,No,2020_Aug_06_1744,nibs_stage_1,3.2.3,60.03801845956531,
1,0,1,0,0,0,0,0,9,0,9,0,,,,,,,,,,,,,,,,,,,,,,,,,Listen to the question and speak out your answer!,751.8003101348877,None,751.7703286170959,753.7836420536041,Nach dem großen Essen war mein Hunger gestillt.,gestillt,753.1672374486923,755.7670271396637,756.1839753866195,None,768.3679494142532,None,769.7677321434021,770.7678141593933,./data/Subject_09/Session_01/Exp_data/2020_Aug_06_1744/rec_QA_run_01_block_000_trial_009.wav,09,01,English,A2,True,False,True,False,False,True,True,True,True,True,True,True,No,1,No,No,No,No,2020_Aug_06_1744,nibs_stage_1,3.2.3,60.03801845956531,
1,0,1,0,0,0,0,0,10,0,10,0,,,,,,,,,,,,,,,,,,,,,,,,,Listen to the question and speak out your answer!,772.8183770179749,None,772.8047727108001,774.8179199695587,Ich beendete meine Arbeit und erhielt eine neue Aufgabe.,beendete,774.1846694231033,None,778.3184103250503,None,789.3852383375167,None,790.7852010726929,791.7853729724884,./data/Subject_09/Session_01/Exp_data/2020_Aug_06_1744/rec_QA_run_01_block_000_trial_010.wav,09,01,English,A2,True,False,True,False,False,True,True,True,True,True,True,True,No,1,No,No,No,No,2020_Aug_06_1744,nibs_stage_1,3.2.3,60.03801845956531,
1,0,1,0,0,0,0,0,11,0,11,0,,,,,,,,,,,,,,,,,,,,,,,,,Listen to the question and speak out your answer!,793.8526380062103,None,793.8390086650847,795.852205991745,Der Mörder wollte die Gründe für seine Tat nicht nennen.,nennen,795.2355863332748,798.2189960479736,798.6190485239028,799.6357369422913,810.4364294290542,None,811.8531370162964,None,./data/Subject_09/Session_01/Exp_data/2020_Aug_06_1744/rec_QA_run_01_block_000_trial_011.wav,09,01,English,A2,True,False,True,False,False,True,True,True,True,True,True,True,No,1,No,No,No,No,2020_Aug_06_1744,nibs_stage_1,3.2.3,60.03801845956531,
1,0,1,0,0,0,0,0,12,0,12,0,,,,,,,,,,,,,,,,,,,,,,,,,Listen to the question and speak out your answer!,814.9200050830841,None,814.9068680047989,816.9533820152283,"Die Regierung plant, mehr Arbeitsplätze für junge Menschen zu schaffen.",schaffen,816.3034314393997,None,820.770295548439,None,831.50417034626,None,832.9208130836487,None,./data/Subject_09/Session_01/Exp_data/2020_Aug_06_1744/rec_QA_run_01_block_000_trial_012.wav,09,01,English,A2,True,False,True,False,False,True,True,True,True,True,True,True,No,1,No,No,No,No,2020_Aug_06_1744,nibs_stage_1,3.2.3,60.03801845956531,
1,0,1,0,0,0,0,0,13,0,13,0,,,,,,,,,,,,,,,,,,,,,,,,,Listen to the question and speak out your answer!,835.9876439571381,None,835.9746060609817,838.0211789608002,Ich denke immer an meine Kindheit zurück.,denke,837.3711704492569,None,840.0712193727493,None,852.5718654870986,None,853.988578081131,None,./data/Subject_09/Session_01/Exp_data/2020_Aug_06_1744/rec_QA_run_01_block_000_trial_013.wav,09,01,English,A2,True,False,True,False,False,True,True,True,True,True,True,True,No,1,No,No,No,No,2020_Aug_06_1744,nibs_stage_1,3.2.3,60.03801845956531,
1,0,1,0,0,0,0,0,14,0,14,0,,,,,,,,,,,,,,,,,,,,,,,,,Listen to the question and speak out your answer!,857.0556440353394,None,857.025725698471,859.0555140972137,"Danke für den Smoothie, den Sie mir machten.",machten,858.4389714479446,861.0555281639099,861.4390444040298,None,873.639639544487,None,875.0563311576843,None,./data/Subject_09/Session_01/Exp_data/2020_Aug_06_1744/rec_QA_run_01_block_000_trial_014.wav,09,01,English,A2,True,False,True,False,False,True,True,True,True,True,True,True,No,1,No,No,No,No,2020_Aug_06_1744,nibs_stage_1,3.2.3,60.03801845956531,
1,0,1,0,0,0,0,0,15,0,15,0,,,,,,,,,,,,,,,,,,,,,,,,,Listen to the question and speak out your answer!,878.1239280700684,None,878.1100609540939,880.1566171646118,"Wir müssen genau planen, was wir tun wollen.",planen,879.5066053152084,None,882.573426413536,None,894.7074083566665,None,896.1240870952606,None,./data/Subject_09/Session_01/Exp_data/2020_Aug_06_1744/rec_QA_run_01_block_000_trial_015.wav,09,01,English,A2,True,False,True,False,False,True,True,True,True,True,True,True,No,1,No,No,No,No,2020_Aug_06_1744,nibs_stage_1,3.2.3,60.03801845956531,
1,0,1,0,0,0,0,0,16,0,16,0,,,,,,,,,,,,,,,,,,,,,,,,,Listen to the question and speak out your answer!,899.1913731098175,None,899.1610525608062,901.1910130977631,"Der Aufzug ist repariert, jetzt funktioniert er wieder.",repariert,900.5744745016098,None,904.4078933477401,None,915.7751394987106,916.7918479442596,917.1918749809265,None,./data/Subject_09/Session_01/Exp_data/2020_Aug_06_1744/rec_QA_run_01_block_000_trial_016.wav,09,01,English,A2,True,False,True,False,False,True,True,True,True,True,True,True,No,1,No,No,No,No,2020_Aug_06_1744,nibs_stage_1,3.2.3,60.03801845956531,
1,0,1,0,0,0,0,0,17,0,17,0,,,,,,,,,,,,,,,,,,,,,,,,,Listen to the question and speak out your answer!,920.2253539562225,None,920.195626592636,922.2254810333252,"Bitte, erinnern Sie mich daran, wenn ich es vergessen sollte.",erinnern,921.608802485466,924.9922749996185,925.3757533311843,None,936.8095854997634,None,938.2263050079346,None,./data/Subject_09/Session_01/Exp_data/2020_Aug_06_1744/rec_QA_run_01_block_000_trial_017.wav,09,01,English,A2,True,False,True,False,False,True,True,True,True,True,True,True,No,1,No,No,No,No,2020_Aug_06_1744,nibs_stage_1,3.2.3,60.03801845956531,
1,0,1,0,0,0,0,0,18,0,18,0,,,,,,,,,,,,,,,,,,,,,,,,,Listen to the question and speak out your answer!,941.2597920894623,None,941.2299877166747,943.2599160671234,"Das Mädchen wollte etwas sagen, also hob sie ihre Hand.",sagen,942.6432384729385,946.1267340183258,946.5100955247879,None,957.8440374612808,958.8606841564178,959.2607290744781,None,./data/Subject_09/Session_01/Exp_data/2020_Aug_06_1744/rec_QA_run_01_block_000_trial_018.wav,09,01,English,A2,True,False,True,False,False,True,True,True,True,True,True,True,No,1,No,No,No,No,2020_Aug_06_1744,nibs_stage_1,3.2.3,60.03801845956531,
1,0,1,0,0,0,0,0,19,0,19,0,,,,,,,,,,,,,,,,,,,,,,,,,Listen to the question and speak out your answer!,962.2951560020447,None,962.2811038732528,964.3276541233063,Er heißt tatsächlich Alexander doch alle nennen ihn Alex.,nennen,963.6776644468307,967.1278021335602,967.5111943960189,None,978.8784593820571,None,980.2953610420227,None,./data/Subject_09/Session_01/Exp_data/2020_Aug_06_1744/rec_QA_run_01_block_000_trial_019.wav,09,01,English,A2,True,False,True,False,False,True,True,True,True,True,True,True,No,1,No,No,No,No,2020_Aug_06_1744,nibs_stage_1,3.2.3,60.03801845956531,
1,0,1,0,0,0,0,0,20,0,20,0,,,,,,,,,,,,,,,,,,,,,,,,,Listen to the question and speak out your answer!,983.3623621463776,None,983.348870062828,985.3953411579132,Können Sie mir auf Hundert Euro herausgeben?,herausgeben,984.7454783201217,None,987.8459223985672,None,999.9462334394455,None,1001.3629341125488,None,./data/Subject_09/Session_01/Exp_data/2020_Aug_06_1744/rec_QA_run_01_block_000_trial_020.wav,09,01,English,A2,True,False,True,False,False,True,True,True,True,True,True,True,No,1,No,No,No,No,2020_Aug_06_1744,nibs_stage_1,3.2.3,60.03801845956531,
1,0,1,0,0,0,0,0,21,0,21,0,,,,,,,,,,,,,,,,,,,,,,,,,Listen to the question and speak out your answer!,1004.4465200901031,None,1004.4166379213333,1006.4465639591217,"Leichte Sprache ist eine Hilfe für Menschen , die keine schwierige Sprache verstehen.",verstehen,1005.829861330986,None,1011.2300793409347,None,1021.0306874990463,None,1022.447368144989,None,./data/Subject_09/Session_01/Exp_data/2020_Aug_06_1744/rec_QA_run_01_block_000_trial_021.wav,09,01,English,A2,True,False,True,False,False,True,True,True,True,True,True,True,No,1,No,No,No,No,2020_Aug_06_1744,nibs_stage_1,3.2.3,60.03801845956531,
1,0,1,0,0,0,0,0,22,0,22,0,,,,,,,,,,,,,,,,,,,,,,,,,Listen to the question and speak out your answer!,1025.4809830188751,None,1025.4510816097259,1027.4812440872192,"Sie besichtigten das Haus, bevor sie es kauften.",besichtigten,1026.8642973184585,None,1030.3978144407272,None,1042.0651084661483,1043.0818059444427,1043.4817979335785,None,./data/Subject_09/Session_01/Exp_data/2020_Aug_06_1744/rec_QA_run_01_block_000_trial_022.wav,09,01,English,A2,True,False,True,False,False,True,True,True,True,True,True,True,No,1,No,No,No,No,2020_Aug_06_1744,nibs_stage_1,3.2.3,60.03801845956531,
1,0,1,0,0,0,0,0,23,0,23,0,,,,,,,,,,,,,,,,,,,,,,,,,Listen to the question and speak out your answer!,1046.5162110328674,None,1046.5021670103072,1048.5487411022186,"Es hat die ganze Woche geregnet, aber heute scheint endlich die Sonne. ",scheint,1047.8987783670425,None,1052.4322823762893,None,1063.0828785181045,None,1064.499549150467,None,./data/Subject_09/Session_01/Exp_data/2020_Aug_06_1744/rec_QA_run_01_block_000_trial_023.wav,09,01,English,A2,True,False,True,False,False,True,True,True,True,True,True,True,No,1,No,No,No,No,2020_Aug_06_1744,nibs_stage_1,3.2.3,60.03801845956531,
1,0,1,0,0,0,0,0,24,0,24,0,,,,,,,,,,,,,,,,,,,,,,,,,Listen to the question and speak out your answer!,1067.56702709198,None,1067.5365785121917,1069.566426038742,Die Ärztin hat Andrea ein Rezept ausgestellt.,ausgestellt,1068.9498123407363,1072.0003781318665,1072.3833393335342,None,1084.150642323494,None,1085.5673229694366,None,./data/Subject_09/Session_01/Exp_data/2020_Aug_06_1744/rec_QA_run_01_block_000_trial_024.wav,09,01,English,A2,True,False,True,False,False,True,True,True,True,True,True,True,No,1,No,No,No,No,2020_Aug_06_1744,nibs_stage_1,3.2.3,60.03801845956531,
1,0,1,0,0,0,0,0,,,,,,,,,,,,,,,,,,1089.584223985672,None,,,,,,,,,,,,,,,,,,,,,,,,,,09,01,English,A2,True,False,True,False,False,True,True,True,True,True,True,True,No,1,No,No,No,No,2020_Aug_06_1744,nibs_stage_1,3.2.3,60.03801845956531,
1,0,1,0,1,0,1,0,0,0,0,0,,,,,,,,,,,,,,,,,,,,,,,,,Listen to the question and speak out your answer!,1104.7525570392609,None,1104.7235885620116,1106.7516889572144,Bienen liefern Honig.,liefern,1106.1350993394851,None,1108.1685473203659,None,1121.3358723402023,1122.3527121543884,1122.752511024475,None,./data/Subject_09/Session_01/Exp_data/2020_Aug_06_1744/rec_QA_run_01_block_001_trial_000.wav,09,01,English,A2,True,False,True,False,False,True,True,True,True,True,True,True,No,1,No,No,No,No,2020_Aug_06_1744,nibs_stage_1,3.2.3,60.03801845956531,
1,0,1,0,1,0,1,0,1,0,1,0,,,,,,,,,,,,,,,,,,,,,,,,,Listen to the question and speak out your answer!,1125.7883350849152,None,1125.7564617156982,1127.7861940860748,Abends essen wir meistens kalt.,essen,1127.1694754838943,1129.1861901283264,1129.569654393196,None,1142.3703624486923,None,1143.7870349884033,None,./data/Subject_09/Session_01/Exp_data/2020_Aug_06_1744/rec_QA_run_01_block_001_trial_001.wav,09,01,English,A2,True,False,True,False,False,True,True,True,True,True,True,True,No,1,No,No,No,No,2020_Aug_06_1744,nibs_stage_1,3.2.3,60.03801845956531,
1,0,1,0,1,0,1,0,2,0,2,0,,,,,,,,,,,,,,,,,,,,,,,,,Listen to the question and speak out your answer!,1146.8210949897766,None,1146.7906275749206,1148.8206441402435,Vor dem Supermarkt kann man auf einer großen Fläche parken. ,parken,1148.2039424657821,None,1152.0708364725112,1153.0875289440155,1163.4047683954238,1164.4214479923248,1164.821452140808,None,./data/Subject_09/Session_01/Exp_data/2020_Aug_06_1744/rec_QA_run_01_block_001_trial_002.wav,09,01,English,A2,True,False,True,False,False,True,True,True,True,True,True,True,No,1,No,No,No,No,2020_Aug_06_1744,nibs_stage_1,3.2.3,60.03801845956531,
1,0,1,0,1,0,1,0,3,0,3,0,,,,,,,,,,,,,,,,,,,,,,,,,Listen to the question and speak out your answer!,1167.8555991649628,None,1167.8252645492553,1169.8551750183105,"Hans arbeitet in einer Schule, er ist der Direktor.",arbeitet,1169.2383953809738,1172.4218690395355,1172.8052984952926,None,1184.439177441597,None,1185.8559081554413,None,./data/Subject_09/Session_01/Exp_data/2020_Aug_06_1744/rec_QA_run_01_block_001_trial_003.wav,09,01,English,A2,True,False,True,False,False,True,True,True,True,True,True,True,No,1,No,No,No,No,2020_Aug_06_1744,nibs_stage_1,3.2.3,60.03801845956531,
1,0,1,0,1,0,1,0,4,0,4,0,,,,,,,,,,,,,,,,,,,,,,,,,Listen to the question and speak out your answer!,1188.872838973999,None,1188.8429233312606,1190.8728351593018,Meine Großtante starb letztes Jahr und wurde neben ihrem Mann begraben.,begraben,1190.2228445291519,1194.5401890277863,1194.9230784654617,None,1205.4402934789657,None,1206.8570230007172,None,./data/Subject_09/Session_01/Exp_data/2020_Aug_06_1744/rec_QA_run_01_block_001_trial_004.wav,09,01,English,A2,True,False,True,False,False,True,True,True,True,True,True,True,No,1,No,No,No,No,2020_Aug_06_1744,nibs_stage_1,3.2.3,60.03801845956531,
1,0,1,0,1,0,1,0,5,0,5,0,,,,,,,,,,,,,,,,,,,,,,,,,Listen to the question and speak out your answer!,1209.9244730472565,None,1209.8940156459807,1211.9239480495453,Er hat meine Sympathie gewonnen.,gewonnen,1211.2739295244216,1213.157329082489,1213.5740494012832,1214.5906491279602,1226.4747633218765,None,1227.8914790153503,None,./data/Subject_09/Session_01/Exp_data/2020_Aug_06_1744/rec_QA_run_01_block_001_trial_005.wav,09,01,English,A2,True,False,True,False,False,True,True,True,True,True,True,True,No,1,No,No,No,No,2020_Aug_06_1744,nibs_stage_1,3.2.3,60.03801845956531,
1,0,1,0,1,0,1,0,6,0,6,0,,,,,,,,,,,,,,,,,,,,,,,,,Listen to the question and speak out your answer!,1230.9591960906982,None,1230.9284385204314,1232.9582870006561,Im Mittelalter öffnete das erste Kaufhaus in Europa.,öffnete,1232.341694521904,None,1236.3418895483017,1237.3586211204529,1247.5425264120101,None,1248.959244966507,None,./data/Subject_09/Session_01/Exp_data/2020_Aug_06_1744/rec_QA_run_01_block_001_trial_006.wav,09,01,English,A2,True,False,True,False,False,True,True,True,True,True,True,True,No,1,No,No,No,No,2020_Aug_06_1744,nibs_stage_1,3.2.3,60.03801845956531,
1,0,1,0,1,0,1,0,7,0,7,0,,,,,,,,,,,,,,,,,,,,,,,,,Listen to the question and speak out your answer!,1251.994302034378,None,1251.9630056381225,1253.9928081035614,"Der Zug fährt gleich ab, wir müssen uns beeilen.",beeilen,1253.3764454603195,None,1256.6429745435714,None,1268.5769263982772,None,1269.9936499595642,None,./data/Subject_09/Session_01/Exp_data/2020_Aug_06_1744/rec_QA_run_01_block_001_trial_007.wav,09,01,English,A2,True,False,True,False,False,True,True,True,True,True,True,True,No,1,No,No,No,No,2020_Aug_06_1744,nibs_stage_1,3.2.3,60.03801845956531,
1,0,1,0,1,0,1,0,8,0,8,0,,,,,,,,,,,,,,,,,,,,,,,,,Listen to the question and speak out your answer!,1273.0777571201324,None,1273.0473470926283,1275.0772240161896,"Meine Mutter kocht heute Mittag nicht, wir gehen aus zum Essen.",kocht,1274.427226471901,None,1278.5608004808425,None,1289.627952504158,None,1291.0447461605072,None,./data/Subject_09/Session_01/Exp_data/2020_Aug_06_1744/rec_QA_run_01_block_001_trial_008.wav,09,01,English,A2,True,False,True,False,False,True,True,True,True,True,True,True,No,1,No,No,No,No,2020_Aug_06_1744,nibs_stage_1,3.2.3,60.03801845956531,
1,0,1,0,1,0,1,0,9,0,9,0,,,,,,,,,,,,,,,,,,,,,,,,,Listen to the question and speak out your answer!,1294.09499001503,None,1294.0651733160018,1296.0949759483337,"Die USA gewannen den Zweiten Weltkrieg, nachdem sie mehrere Jahre lang gekämpft hatten.",gewannen,1295.444975543022,None,1301.278712439537,1302.2953209877014,1310.6458224534988,None,1312.0625340938568,None,./data/Subject_09/Session_01/Exp_data/2020_Aug_06_1744/rec_QA_run_01_block_001_trial_009.wav,09,01,English,A2,True,False,True,False,False,True,True,True,True,True,True,True,No,1,No,No,No,No,2020_Aug_06_1744,nibs_stage_1,3.2.3,60.03801845956531,
1,0,1,0,1,0,1,0,10,0,10,0,,,,,,,,,,,,,,,,,,,,,,,,,Listen to the question and speak out your answer!,1315.1133360862732,None,1315.082848238945,1317.1127829551697,Du musst die Verantwortung für deine Taten übernehmen.,übernehmen,1316.4627563238143,1319.4795579910278,1319.8629373788833,None,1331.6636623620986,1332.680253982544,1333.0802941322327,None,./data/Subject_09/Session_01/Exp_data/2020_Aug_06_1744/rec_QA_run_01_block_001_trial_010.wav,09,01,English,A2,True,False,True,False,False,True,True,True,True,True,True,True,No,1,No,No,No,No,2020_Aug_06_1744,nibs_stage_1,3.2.3,60.03801845956531,
1,0,1,0,1,0,1,0,11,0,11,0,,,,,,,,,,,,,,,,,,,,,,,,,Listen to the question and speak out your answer!,1336.1476321220398,None,1336.1173025131225,1338.1471991539001,Die Bergsteiger sind in die Wand eingestiegen.,eingestiegen,1337.4972085237503,None,1340.4308163404464,None,1352.697987484932,None,1354.1147520542145,None,./data/Subject_09/Session_01/Exp_data/2020_Aug_06_1744/rec_QA_run_01_block_001_trial_011.wav,09,01,English,A2,True,False,True,False,False,True,True,True,True,True,True,True,No,1,No,No,No,No,2020_Aug_06_1744,nibs_stage_1,3.2.3,60.03801845956531,
1,0,1,0,1,0,1,0,12,0,12,0,,,,,,,,,,,,,,,,,,,,,,,,,Listen to the question and speak out your answer!,1357.1816430091858,None,1357.1517365932464,1359.1816430091858,"Es ist zu windig, können Sie bitte das Fenster schließen.",schließen,1358.5316504716873,1361.8484621047974,1362.265180516243,None,1373.7324334859848,1374.74910902977,1375.149265050888,None,./data/Subject_09/Session_01/Exp_data/2020_Aug_06_1744/rec_QA_run_01_block_001_trial_012.wav,09,01,English,A2,True,False,True,False,False,True,True,True,True,True,True,True,No,1,No,No,No,No,2020_Aug_06_1744,nibs_stage_1,3.2.3,60.03801845956531,
1,0,1,0,1,0,1,0,13,0,13,0,,,,,,,,,,,,,,,,,,,,,,,,,Listen to the question and speak out your answer!,1378.2175960540771,None,1378.186142539978,1380.2160930633545,Junge Leute machen gerne Partys.,machen,1379.5994104623794,None,1382.432896542549,None,1394.8002213716507,None,1396.2169499397278,None,./data/Subject_09/Session_01/Exp_data/2020_Aug_06_1744/rec_QA_run_01_block_001_trial_013.wav,09,01,English,A2,True,False,True,False,False,True,True,True,True,True,True,True,No,1,No,No,No,No,2020_Aug_06_1744,nibs_stage_1,3.2.3,60.03801845956531,
1,0,1,0,1,0,1,0,14,0,14,0,,,,,,,,,,,,,,,,,,,,,,,,,Listen to the question and speak out your answer!,1399.2843029499054,None,1399.2540737152099,1401.2838680744171,Ich habe alle meine Freunde zu meiner Geburtstags Party eingeladen.,eingeladen,1400.633982348442,1404.750699043274,1405.1674393892288,None,1415.8346413850784,None,1417.2513480186462,None,./data/Subject_09/Session_01/Exp_data/2020_Aug_06_1744/rec_QA_run_01_block_001_trial_014.wav,09,01,English,A2,True,False,True,False,False,True,True,True,True,True,True,True,No,1,No,No,No,No,2020_Aug_06_1744,nibs_stage_1,3.2.3,60.03801845956531,
1,0,1,0,1,0,1,0,15,0,15,0,,,,,,,,,,,,,,,,,,,,,,,,,Listen to the question and speak out your answer!,1420.318284034729,None,1420.2883447170257,1422.3182909488678,Die Kellnerin schenkte den Kunden Wein nach.,schenkte,1421.7018684625625,1424.4183900356293,1424.801774430275,None,1436.902408528328,None,1438.3191030025482,None,./data/Subject_09/Session_01/Exp_data/2020_Aug_06_1744/rec_QA_run_01_block_001_trial_015.wav,09,01,English,A2,True,False,True,False,False,True,True,True,True,True,True,True,No,1,No,No,No,No,2020_Aug_06_1744,nibs_stage_1,3.2.3,60.03801845956531,
1,0,1,0,1,0,1,0,16,0,16,0,,,,,,,,,,,,,,,,,,,,,,,,,Listen to the question and speak out your answer!,1441.3526260852814,None,1441.3226955890655,1443.3527030944824,Ich habe meine Lederschuhe mit einem Lappen geputzt.,geputzt,1442.703021454811,1445.6530449390411,1446.069845366478,None,1457.9201673746109,None,1459.3369131088257,None,./data/Subject_09/Session_01/Exp_data/2020_Aug_06_1744/rec_QA_run_01_block_001_trial_016.wav,09,01,English,A2,True,False,True,False,False,True,True,True,True,True,True,True,No,1,No,No,No,No,2020_Aug_06_1744,nibs_stage_1,3.2.3,60.03801845956531,
1,0,1,0,1,0,1,0,17,0,17,0,,,,,,,,,,,,,,,,,,,,,,,,,Listen to the question and speak out your answer!,1462.3871440887451,None,1462.3571972131729,1464.3871309757233,Ein Gewitter besteht aus Blitz und Donner.,besteht,1463.7704834222793,None,1466.6372985124588,None,1478.9713215112686,None,1480.388025045395,None,./data/Subject_09/Session_01/Exp_data/2020_Aug_06_1744/rec_QA_run_01_block_001_trial_017.wav,09,01,English,A2,True,False,True,False,False,True,True,True,True,True,True,True,No,1,No,No,No,No,2020_Aug_06_1744,nibs_stage_1,3.2.3,60.03801845956531,
1,0,1,0,1,0,1,0,18,0,18,0,,,,,,,,,,,,,,,,,,,,,,,,,Listen to the question and speak out your answer!,1483.438441991806,None,1483.4083709955214,1485.4381799697876,Der Spender möchte anonym bleiben.,bleiben,1484.8216294527053,None,1487.321705508232,1488.3384160995483,1500.022375512123,1501.03905916214,1501.4391069412231,None,./data/Subject_09/Session_01/Exp_data/2020_Aug_06_1744/rec_QA_run_01_block_001_trial_018.wav,09,01,English,A2,True,False,True,False,False,True,True,True,True,True,True,True,No,1,No,No,No,No,2020_Aug_06_1744,nibs_stage_1,3.2.3,60.03801845956531,
1,0,1,0,1,0,1,0,19,0,19,0,,,,,,,,,,,,,,,,,,,,,,,,,Listen to the question and speak out your answer!,1504.4727010726929,None,1504.4428075313567,1506.472694158554,"Ich kann dir gerne mein Fahrrad leihen, wenn du möchtest.",leihen,1505.8226973295211,None,1509.3228835344314,None,1521.0234865427017,1522.0401780605316,1522.4403040409088,None,./data/Subject_09/Session_01/Exp_data/2020_Aug_06_1744/rec_QA_run_01_block_001_trial_019.wav,09,01,English,A2,True,False,True,False,False,True,True,True,True,True,True,True,No,1,No,No,No,No,2020_Aug_06_1744,nibs_stage_1,3.2.3,60.03801845956531,
1,0,1,0,1,0,1,0,20,0,20,0,,,,,,,,,,,,,,,,,,,,,,,,,Listen to the question and speak out your answer!,1525.5073730945587,None,1525.4772206306457,1527.507159948349,"Der Assistent ging zurück ins Büro, um die Dokumente zu holen.",holen,1526.8904513597488,1530.8742439746857,1531.2573584794998,1532.274050951004,1542.0912524938583,1543.108162164688,1543.5079669952393,None,./data/Subject_09/Session_01/Exp_data/2020_Aug_06_1744/rec_QA_run_01_block_001_trial_020.wav,09,01,English,A2,True,False,True,False,False,True,True,True,True,True,True,True,No,1,No,No,No,No,2020_Aug_06_1744,nibs_stage_1,3.2.3,60.03801845956531,
1,0,1,0,1,0,1,0,21,0,21,0,,,,,,,,,,,,,,,,,,,,,,,,,Listen to the question and speak out your answer!,1546.5420801639557,None,1546.5119236469268,1548.5415570735931,"Kollegen versammelt sich zusammen, um ein neues Projekt zu planen.",planen,1547.8915633440017,1551.9417431354523,1552.3584744215011,None,1563.0923585176467,None,1564.5090670585632,None,./data/Subject_09/Session_01/Exp_data/2020_Aug_06_1744/rec_QA_run_01_block_001_trial_021.wav,09,01,English,A2,True,False,True,False,False,True,True,True,True,True,True,True,No,1,No,No,No,No,2020_Aug_06_1744,nibs_stage_1,3.2.3,60.03801845956531,
1,0,1,0,1,0,1,0,22,0,22,0,,,,,,,,,,,,,,,,,,,,,,,,,Listen to the question and speak out your answer!,1567.559564113617,None,1567.5293862104415,1569.5593321323395,"Ich kann prüfen, ob wir diese Hose auf Lager haben.",prüfen,1568.94269053936,None,1572.5428463697433,1573.5595891475677,1584.1436173200607,1585.1601490974426,1585.5601699352264,None,./data/Subject_09/Session_01/Exp_data/2020_Aug_06_1744/rec_QA_run_01_block_001_trial_022.wav,09,01,English,A2,True,False,True,False,False,True,True,True,True,True,True,True,No,1,No,No,No,No,2020_Aug_06_1744,nibs_stage_1,3.2.3,60.03801845956531,
1,0,1,0,1,0,1,0,23,0,23,0,,,,,,,,,,,,,,,,,,,,,,,,,Listen to the question and speak out your answer!,1588.5779180526733,None,1588.5471462488174,1590.5770950317383,Bist du schon mal auf einem Pony geritten? ,geritten,1589.9604224443435,1592.2774140834808,1592.6272434473037,1593.6439590454102,1605.1612483739852,None,1606.5779700279236,None,./data/Subject_09/Session_01/Exp_data/2020_Aug_06_1744/rec_QA_run_01_block_001_trial_023.wav,09,01,English,A2,True,False,True,False,False,True,True,True,True,True,True,True,No,1,No,No,No,No,2020_Aug_06_1744,nibs_stage_1,3.2.3,60.03801845956531,
1,0,1,0,1,0,1,0,24,0,24,0,,,,,,,,,,,,,,,,,,,,,,,,,Listen to the question and speak out your answer!,1609.6114399433136,None,1609.5816255569457,1611.6115469932556,Auf Lavaerde wachsen sehr gute Weintrauben.,wachsen,1610.994879412651,None,1614.528376507759,None,1626.1956693410873,None,1627.61234998703,None,./data/Subject_09/Session_01/Exp_data/2020_Aug_06_1744/rec_QA_run_01_block_001_trial_024.wav,09,01,English,A2,True,False,True,False,False,True,True,True,True,True,True,True,No,1,No,No,No,No,2020_Aug_06_1744,nibs_stage_1,3.2.3,60.03801845956531,
1,0,1,0,1,0,1,0,,,,,,,,,,,,,,,,,,1631.6291799545288,None,,,,,,,,,,,,,,,,,,,,,,,,,,09,01,English,A2,True,False,True,False,False,True,True,True,True,True,True,True,No,1,No,No,No,No,2020_Aug_06_1744,nibs_stage_1,3.2.3,60.03801845956531,
