run.thisRepN,run.thisTrialN,run.thisN,run.thisIndex,artifact_trial.thisRepN,artifact_trial.thisTrialN,artifact_trial.thisN,artifact_trial.thisIndex,QA_block.thisRepN,QA_block.thisTrialN,QA_block.thisN,QA_block.thisIndex,QA_trial.thisRepN,QA_trial.thisTrialN,QA_trial.thisN,QA_trial.thisIndex,fade_in_text.text,fade_in_text.started,fade_in_text.stopped,Artifact_intro_title.started,Artifact_intro_title.stopped,Artifact_intro_text.text,Artifact_intro_text.started,Artifact_intro_text.stopped,Artifact_intro_audio.started,Artifact_intro_audio.stopped,Artifact_intro_cont.started,Artifact_intro_cont.stopped,Artifact_rec_text.text,Artifact_rec_text.started,Artifact_rec_text.stopped,Artifact_rec_beep_hint.started,Artifact_rec_beep_hint.stopped,Artifact_rec_action.started,Artifact_rec_action.stopped,Artifact_rec_beep_start.started,Artifact_rec_beep_start.stopped,Artifact_rec_recording.started,Artifact_rec_recording.stopped,Artifact_rec_beep_end.started,Artifact_rec_beep_end.stopped,Artifact_rec_break.started,Artifact_rec_break.stopped,RS_intro_title.started,RS_intro_title.stopped,RS_intro_text.text,RS_intro_text.started,RS_intro_text.stopped,RS_intro_audio.started,RS_intro_audio.stopped,RS_rec_text.text,RS_rec_text.started,RS_rec_text.stopped,Pause_cont.started,Pause_cont.stopped,QA_intro_title.started,QA_intro_title.stopped,QA_intro_text.text,QA_intro_text.started,QA_intro_text.stopped,QA_intro_audio.started,QA_intro_audio.stopped,QA_intro_cont.started,QA_intro_cont.stopped,QA_rec_text.text,QA_rec_text.started,QA_rec_text.stopped,QA_rec_beep_hint.started,QA_rec_beep_hint.stopped,QA_rec_question.sen_text,QA_rec_question.cen_text,QA_rec_question.started,QA_rec_question.stopped,QA_rec_beep_start.started,QA_rec_beep_start.stopped,QA_rec_beep_end.started,QA_rec_beep_end.stopped,QA_rec_break.started,QA_rec_break.stopped,filename,fade_out_text.text,fade_out_text.started,fade_out_text.stopped,participant,session,First language,German level,Full_screen,Instruction,Intro,Artifact,Cali_pre,Fade_in_out,Artifact_within,Resting_State,QA,Pause,Cali_post,End,Breakpoint_Cali_pre_trial,Breakpoint_Run,Breakpoint_RS_block,Breakpoint_QA_block,Breakpoint_QA_trial,Breakpoint_Cali_post_trial,date,expName,psychopyVersion,frameRate,
2,0,2,0,0,0,0,0,,,,,,,,,Please remain seated until further instruction via the earphone.,61.71848392486572,None,63.752089977264404,None,"  - Task: Artifacts collection   
  - Please follow audio instruction              
",63.752089977264404,None,63.73430917263031,None,90.11998391151428,None,,92.15360593795776,None,92.13580915927886,94.1368339061737,93.5367777109146,None,96.93689367771148,None,98.33705661296844,108.33763384819031,108.73764464855194,None,110.13772487640381,111.13771486282349,,,,,,,,,,,,,,,,,,,,,,,,,,,,,,,,,,,,,,,,,09,01,English,A2,True,False,True,False,False,True,True,True,True,True,True,True,No,2,No,No,No,No,2020_Aug_06_1817,nibs_stage_1,3.2.3,60.00022888270905,
2,0,2,0,1,0,1,0,,,,,,,,,,,,,,,,,,,,,,114.154709815979,None,114.15364716053008,116.15475487709045,115.53798768520355,None,118.9381587266922,None,120.33824274539947,130.33876991271973,130.7386877298355,131.7387900352478,132.13881587982178,133.13882899284363,,,,,,,,,,,,,,,,,,,,,,,,,,,,,,,,,,,,,,,,,09,01,English,A2,True,False,True,False,False,True,True,True,True,True,True,True,No,2,No,No,No,No,2020_Aug_06_1817,nibs_stage_1,3.2.3,60.00022888270905,
2,0,2,0,2,0,2,0,,,,,,,,,,,,,,,,,,,,,,136.17256498336792,136.17256498336792,136.1547341108322,138.15581393241882,137.55596063137054,None,140.95596573352813,None,142.35594460964202,152.35647296905518,152.75677773952484,153.75663304328918,154.15671491622925,155.1567678451538,,,,,,,,,,,,,,,,,,,,,,,,,,,,,,,,,,,,,,,,,09,01,English,A2,True,False,True,False,False,True,True,True,True,True,True,True,No,2,No,No,No,No,2020_Aug_06_1817,nibs_stage_1,3.2.3,60.00022888270905,
2,0,2,0,3,0,3,0,,,,,,,,,,,,,,,,,,,,,,158.1738679409027,None,158.17259213924407,160.17366003990173,159.55694053173065,None,162.9571125268936,None,164.3571986913681,174.3576958179474,174.7576715707779,175.75779700279236,176.15783882141113,177.1579089164734,,,,,,,,,,,,,,,,,,,,,,,,,,,,,,,,,,,,,,,,,09,01,English,A2,True,False,True,False,False,True,True,True,True,True,True,True,No,2,No,No,No,No,2020_Aug_06_1817,nibs_stage_1,3.2.3,60.00022888270905,
2,0,2,0,4,0,4,0,,,,,,,,,,,,,,,,,,,,,,180.19133591651917,180.19133591651917,180.17370722293853,182.17456889152527,181.57477853298187,None,184.97478458881378,None,186.37478563785552,196.3753960132599,196.77541563510894,None,198.175390958786,199.17552590370178,,,,,,,,,,,,,,,,,,,,,,,,,,,,,,,,,,,,,,,,,09,01,English,A2,True,False,True,False,False,True,True,True,True,True,True,True,No,2,No,No,No,No,2020_Aug_06_1817,nibs_stage_1,3.2.3,60.00022888270905,
2,0,2,0,5,0,5,0,,,,,,,,,,,,,,,,,,,,,,202.1928470134735,None,202.19141528606414,204.19289088249207,203.57605860233306,None,206.97607371807098,None,208.37618658542632,218.37667393684387,218.77667067050933,None,220.1767828464508,221.17677903175354,,,,,,,,,,,,,,,,,,,,,,,,,,,,,,,,,,,,,,,,,09,01,English,A2,True,False,True,False,False,True,True,True,True,True,True,True,No,2,No,No,No,No,2020_Aug_06_1817,nibs_stage_1,3.2.3,60.00022888270905,
2,0,2,0,6,0,6,0,,,,,,,,,,,,,,,,,,,,,,224.21033191680908,224.21033191680908,224.1926922559738,226.1934130191803,225.59337875843048,None,228.9937076330185,None,230.3937046289444,240.39422488212585,240.7942435503006,None,242.1942319869995,243.1943700313568,,,,,,,,,,,,,,,,,,,,,,,,,,,,,,,,,,,,,,,,,09,01,English,A2,True,False,True,False,False,True,True,True,True,True,True,True,No,2,No,No,No,No,2020_Aug_06_1817,nibs_stage_1,3.2.3,60.00022888270905,
2,0,2,0,7,0,7,0,,,,,,,,,,,,,,,,,,,,,,246.21176481246948,None,246.2102772951126,248.21129894256592,247.59458372592925,250.59475588798523,250.99467060565948,None,252.3948557138443,262.3952729701996,262.7952897310257,None,264.1954448223114,265.19549798965454,,,,,,,,,,,,,,,,,,,,,,,,,,,,,,,,,,,,,,,,,09,01,English,A2,True,False,True,False,False,True,True,True,True,True,True,True,No,2,No,No,No,No,2020_Aug_06_1817,nibs_stage_1,3.2.3,60.00022888270905,
2,0,2,0,8,0,8,0,,,,,,,,,,,,,,,,,,,,,,268.2291269302368,268.2291269302368,268.21129224300387,270.21234703063965,269.6123807191849,272.61254501342773,273.01255176067355,None,274.41253969669344,284.41312885284424,284.81315371990206,None,286.21322298049927,287.2132589817047,,,,,,,,,,,,,,,,,,,,,,,,,,,,,,,,,,,,,,,,,09,01,English,A2,True,False,True,False,False,True,True,True,True,True,True,True,No,2,No,No,No,No,2020_Aug_06_1817,nibs_stage_1,3.2.3,60.00022888270905,
2,0,2,0,9,0,9,0,,,,,,,,,,,,,,,,,,,,,,290.2306308746338,None,290.22913525104525,292.230211019516,291.61348459720614,294.61366081237793,295.0136017560959,296.0137279033661,296.41376373767855,306.4143648147583,306.81427857875826,None,308.2143540382385,309.2144010066986,,,,,,,,,,,,,,,,,,,,,,,,,,,,,,,,,,,,,,,,,09,01,English,A2,True,False,True,False,False,True,True,True,True,True,True,True,No,2,No,No,No,No,2020_Aug_06_1817,nibs_stage_1,3.2.3,60.00022888270905,
2,0,2,0,10,0,10,0,,,,,,,,,,,,,,,,,,,,,,312.2488579750061,312.2488579750061,312.24728579521184,314.24797081947327,313.6312765836716,None,317.0325617551804,None,318.43164656162264,328.4320390224457,328.8324196100235,None,330.23233294487,331.2323899269104,,,,,,,,,,,,,,,,,,,,,,,,,,,,,,,,,,,,,,,,,09,01,English,A2,True,False,True,False,False,True,True,True,True,True,True,True,No,2,No,No,No,No,2020_Aug_06_1817,nibs_stage_1,3.2.3,60.00022888270905,
2,0,2,0,11,0,11,0,,,,,,,,,,,,,,,,,,,,,,334.2659749984741,None,334.24825928211214,336.24932885169983,335.63264153003695,None,339.0327236413956,340.03284788131714,340.4328806161881,350.43331599235535,350.83340260982516,None,352.23345398902893,353.2337369918823,,,,,,,,,,,,,,,,,,,,,,,,,,,,,,,,,,,,,,,,,09,01,English,A2,True,False,True,False,False,True,True,True,True,True,True,True,No,2,No,No,No,No,2020_Aug_06_1817,nibs_stage_1,3.2.3,60.00022888270905,
2,0,2,0,12,0,12,0,,,,,,,,,,,,,,,,,,,,,,356.28364992141724,None,356.26604816913607,358.2671158313751,357.6504075288773,360.650563955307,361.0505826234818,None,362.45056173801424,372.45116901397705,372.85179660320284,None,374.25153493881226,375.2513129711151,,,,,,,,,,,,,,,,,,,,,,,,,,,,,,,,,,,,,,,,,09,01,English,A2,True,False,True,False,False,True,True,True,True,True,True,True,No,2,No,No,No,No,2020_Aug_06_1817,nibs_stage_1,3.2.3,60.00022888270905,
2,0,2,0,13,0,13,0,,,,,,,,,,,,,,,,,,,,,,378.3014898300171,None,378.28403613567355,380.2849600315094,379.66820261478426,None,383.068411564827,384.0684440135956,384.4684366941452,394.46896290779114,394.8689715623856,None,396.26924991607666,397.26903891563416,,,,,,,,,,,,,,,,,,,,,,,,,,,,,,,,,,,,,,,,,09,01,English,A2,True,False,True,False,False,True,True,True,True,True,True,True,No,2,No,No,No,No,2020_Aug_06_1817,nibs_stage_1,3.2.3,60.00022888270905,
2,0,2,0,14,0,14,0,,,,,,,,,,,,,,,,,,,,,,400.31997895240784,None,400.30167815685274,402.3026909828186,401.68590853214266,None,405.0863706827164,406.0862319469452,406.48623464107516,416.4865219593048,416.8865246534348,None,418.28668785095215,419.28687500953674,,,,,,,,,,,,,,,,,,,,,,,,,,,,,,,,,,,,,,,,,09,01,English,A2,True,False,True,False,False,True,True,True,True,True,True,True,No,2,No,No,No,No,2020_Aug_06_1817,nibs_stage_1,3.2.3,60.00022888270905,
2,0,2,0,,,,,0,0,0,0,0,0,0,0,,,,,,,,,,,,,,,,,,,,,,,,,,,,629.731036901474,None," - Task: Keep seated and relaxed with either      
             opening or closing eyes                  
 - Beep sound with decreasing pitch: Block finish 
",629.731036901474,None,629.7134069919587,None,"Please keep relaxed and open your eyes.
Note: Blinking is allowed.",652.7654209136963,832.7746469974518,836.1584210395813,None,850.1755578517914,None," - Task: Listen to the question& Speak out answer 
 - Melodious beep sound: Trial start              
 - Silent sound (blank): censored word            
 - Beep sound with increasing pitch: Rec. start   
 - Beep sound with decreasing pitch: Rec. finish  
",850.1755578517914,None,850.1574508905411,None,889.5775728225708,None,Listen to the question and speak out your answer!,892.6444139480591,None,892.6263002634049,894.6278548240662,Wir müssen jemanden mit mehr Erfahrung für diese wichtige Position einstellen.,einstellen,894.0278055429459,898.4613869190216,898.8780567407608,899.8781268596649,909.2285775899887,None,910.6286718845367,911.6288158893585,./data/Subject_09/Session_01/Exp_data/2020_Aug_06_1817/rec_QA_run_02_block_000_trial_000.wav,,,,09,01,English,A2,True,False,True,False,False,True,True,True,True,True,True,True,No,2,No,No,No,No,2020_Aug_06_1817,nibs_stage_1,3.2.3,60.00022888270905,
2,0,2,0,,,,,0,0,0,0,1,0,1,0,,,,,,,,,,,,,,,,,,,,,,,,,,,,,,,,,,,,,,,,,,,,,,,,,Listen to the question and speak out your answer!,913.6788928508759,None,913.6613008499146,915.6622710227966,"Sam ist nicht da, soll ich ihm sagen, dass Sie nachher zurück rufen?",rufen,915.04564473629,919.0625309944153,919.4624247312546,920.4625070095062,930.2465796232224,None,931.646586894989,932.6467199325562,./data/Subject_09/Session_01/Exp_data/2020_Aug_06_1817/rec_QA_run_02_block_000_trial_001.wav,,,,09,01,English,A2,True,False,True,False,False,True,True,True,True,True,True,True,No,2,No,No,No,No,2020_Aug_06_1817,nibs_stage_1,3.2.3,60.00022888270905,
2,0,2,0,,,,,0,0,0,0,2,0,2,0,,,,,,,,,,,,,,,,,,,,,,,,,,,,,,,,,,,,,,,,,,,,,,,,,Listen to the question and speak out your answer!,934.7135229110718,None,934.6958498477936,936.6969418525696,Ich entschuldige bitte meine Verspätung.,entschuldige,936.0802016019821,None,938.7970216035843,None,951.2809927225113,952.2810678482056,952.6812868118286,953.6810510158539,./data/Subject_09/Session_01/Exp_data/2020_Aug_06_1817/rec_QA_run_02_block_000_trial_002.wav,,,,09,01,English,A2,True,False,True,False,False,True,True,True,True,True,True,True,No,2,No,No,No,No,2020_Aug_06_1817,nibs_stage_1,3.2.3,60.00022888270905,
2,0,2,0,,,,,0,0,0,0,3,0,3,0,,,,,,,,,,,,,,,,,,,,,,,,,,,,,,,,,,,,,,,,,,,,,,,,,Listen to the question and speak out your answer!,955.7478659152985,None,955.7303409099579,957.7313249111176,Mit dem neuen System können wir Dokumente effizienter organisieren.,organisieren,957.1149255990982,None,961.6648895502091,962.6648898124695,972.3158056497574,None,973.7154200077057,974.7155249118805,./data/Subject_09/Session_01/Exp_data/2020_Aug_06_1817/rec_QA_run_02_block_000_trial_003.wav,,,,09,01,English,A2,True,False,True,False,False,True,True,True,True,True,True,True,No,2,No,No,No,No,2020_Aug_06_1817,nibs_stage_1,3.2.3,60.00022888270905,
2,0,2,0,,,,,0,0,0,0,4,0,4,0,,,,,,,,,,,,,,,,,,,,,,,,,,,,,,,,,,,,,,,,,,,,,,,,,Listen to the question and speak out your answer!,976.7829899787903,None,976.7646898746491,978.7658038139343,"Wir haben die Preise gesenkt, um neue Kunden zu gewinnen.",gewinnen,978.1657297372818,None,982.0492875337601,None,993.3664965391159,None,994.7664968967438,995.7666330337524,./data/Subject_09/Session_01/Exp_data/2020_Aug_06_1817/rec_QA_run_02_block_000_trial_004.wav,,,,09,01,English,A2,True,False,True,False,False,True,True,True,True,True,True,True,No,2,No,No,No,No,2020_Aug_06_1817,nibs_stage_1,3.2.3,60.00022888270905,
2,0,2,0,,,,,0,0,0,0,5,0,5,0,,,,,,,,,,,,,,,,,,,,,,,,,,,,,,,,,,,,,,,,,,,,,,,,,Listen to the question and speak out your answer!,997.8172929286957,None,997.7991179943085,999.8001759052277,"Da drüben raucht es, wir sollten die Feuerwehr holen.",raucht,999.1835176706314,1002.5336608886719,1002.9336626291275,None,1014.384445643425,None,1015.7843768596649,1016.7843859195709,./data/Subject_09/Session_01/Exp_data/2020_Aug_06_1817/rec_QA_run_02_block_000_trial_005.wav,,,,09,01,English,A2,True,False,True,False,False,True,True,True,True,True,True,True,No,2,No,No,No,No,2020_Aug_06_1817,nibs_stage_1,3.2.3,60.00022888270905,
2,0,2,0,,,,,0,0,0,0,6,0,6,0,,,,,,,,,,,,,,,,,,,,,,,,,,,,,,,,,,,,,,,,,,,,,,,,,Listen to the question and speak out your answer!,1018.8680338859558,None,1018.8504466295243,1020.8512709140778,Die Erklärungen des Lehrers haben absolut Sinn ergeben.,ergeben,1020.2346045732498,1023.6347558498383,1024.05164167881,None,1035.435370659828,None,1036.835480928421,1037.8357059955597,./data/Subject_09/Session_01/Exp_data/2020_Aug_06_1817/rec_QA_run_02_block_000_trial_006.wav,,,,09,01,English,A2,True,False,True,False,False,True,True,True,True,True,True,True,No,2,No,No,No,No,2020_Aug_06_1817,nibs_stage_1,3.2.3,60.00022888270905,
2,0,2,0,,,,,0,0,0,0,7,0,7,0,,,,,,,,,,,,,,,,,,,,,,,,,,,,,,,,,,,,,,,,,,,,,,,,,Listen to the question and speak out your answer!,1039.885939836502,None,1039.867951130867,1041.8690659999847,Ich gratuliere dir zum Bestehen dieser schwierigen Prüfung.,gratuliere,1041.2523755788802,None,1045.1025197267531,None,1056.4532265424727,None,1057.8528938293457,1058.8530328273773,./data/Subject_09/Session_01/Exp_data/2020_Aug_06_1817/rec_QA_run_02_block_000_trial_007.wav,,,,09,01,English,A2,True,False,True,False,False,True,True,True,True,True,True,True,No,2,No,No,No,No,2020_Aug_06_1817,nibs_stage_1,3.2.3,60.00022888270905,
2,0,2,0,,,,,0,0,0,0,8,0,8,0,,,,,,,,,,,,,,,,,,,,,,,,,,,,,,,,,,,,,,,,,,,,,,,,,Listen to the question and speak out your answer!,1060.9201018810272,None,1060.9022438049315,1062.9033818244934,Wir haben im Wald Beeren und Pilze gesammelt.,gesammelt,1062.2867705583571,1065.0868549346924,1065.5035395383834,None,1077.4875476121902,1078.4876198768616,1078.8877928256989,1079.8876798152924,./data/Subject_09/Session_01/Exp_data/2020_Aug_06_1817/rec_QA_run_02_block_000_trial_008.wav,,,,09,01,English,A2,True,False,True,False,False,True,True,True,True,True,True,True,No,2,No,No,No,No,2020_Aug_06_1817,nibs_stage_1,3.2.3,60.00022888270905,
2,0,2,0,,,,,0,0,0,0,9,0,9,0,,,,,,,,,,,,,,,,,,,,,,,,,,,,,,,,,,,,,,,,,,,,,,,,,Listen to the question and speak out your answer!,1081.9545378684998,None,1081.936863851547,1083.954435825348,Ich hielt das Küken vorsichtig in beiden Händen.,hielt,1083.3212506532668,1086.2379698753357,1086.6379747152328,None,1098.505354619026,None,1099.9053900241852,1100.905426979065,./data/Subject_09/Session_01/Exp_data/2020_Aug_06_1817/rec_QA_run_02_block_000_trial_009.wav,,,,09,01,English,A2,True,False,True,False,False,True,True,True,True,True,True,True,No,2,No,No,No,No,2020_Aug_06_1817,nibs_stage_1,3.2.3,60.00022888270905,
2,0,2,0,,,,,0,0,0,0,10,0,10,0,,,,,,,,,,,,,,,,,,,,,,,,,,,,,,,,,,,,,,,,,,,,,,,,,Listen to the question and speak out your answer!,1102.9725468158722,None,1102.9547938823698,1104.972366809845,"Zu den hundeartigen Tieren, die in Österreich leben, gehört der Wolf.",gehört,1104.355596756935,None,1109.1558656454085,None,1119.5563125371932,None,1120.9564678668976,1121.9565958976746,./data/Subject_09/Session_01/Exp_data/2020_Aug_06_1817/rec_QA_run_02_block_000_trial_010.wav,,,,09,01,English,A2,True,False,True,False,False,True,True,True,True,True,True,True,No,2,No,No,No,No,2020_Aug_06_1817,nibs_stage_1,3.2.3,60.00022888270905,
2,0,2,0,,,,,0,0,0,0,11,0,11,0,,,,,,,,,,,,,,,,,,,,,,,,,,,,,,,,,,,,,,,,,,,,,,,,,Listen to the question and speak out your answer!,1124.006992816925,None,1123.9890808582304,1125.990187883377,Das Bild kann mir die Uhrzeitangabe verstehen helfen.,helfen,1125.3902606725692,None,1128.9402177095412,None,1140.5908386468886,None,1142.0076699256897,None,./data/Subject_09/Session_01/Exp_data/2020_Aug_06_1817/rec_QA_run_02_block_000_trial_011.wav,,,,09,01,English,A2,True,False,True,False,False,True,True,True,True,True,True,True,No,2,No,No,No,No,2020_Aug_06_1817,nibs_stage_1,3.2.3,60.00022888270905,
2,0,2,0,,,,,0,0,0,0,12,0,12,0,,,,,,,,,,,,,,,,,,,,,,,,,,,,,,,,,,,,,,,,,,,,,,,,,Listen to the question and speak out your answer!,1145.0575988292694,None,1145.0401255369186,1147.0408608913422,Ich nehme nicht gerne Zucker zum Tee.,nehme,1146.4242555856704,1148.6410720348358,1149.0577466249465,1150.0577700138092,1161.6250245332717,None,1163.0252048969269,1164.0250759124756,./data/Subject_09/Session_01/Exp_data/2020_Aug_06_1817/rec_QA_run_02_block_000_trial_012.wav,,,,09,01,English,A2,True,False,True,False,False,True,True,True,True,True,True,True,No,2,No,No,No,No,2020_Aug_06_1817,nibs_stage_1,3.2.3,60.00022888270905,
2,0,2,0,,,,,0,0,0,0,13,0,13,0,,,,,,,,,,,,,,,,,,,,,,,,,,,,,,,,,,,,,,,,,,,,,,,,,Listen to the question and speak out your answer!,1166.092043876648,None,1166.074220585823,1168.0753648281097,Du kannst auf meine Unterstützung rechnen.,rechnen,1167.4586636781692,None,1170.2422406435012,None,1182.6763326883315,None,1184.092964887619,None,./data/Subject_09/Session_01/Exp_data/2020_Aug_06_1817/rec_QA_run_02_block_000_trial_013.wav,,,,09,01,English,A2,True,False,True,False,False,True,True,True,True,True,True,True,No,2,No,No,No,No,2020_Aug_06_1817,nibs_stage_1,3.2.3,60.00022888270905,
2,0,2,0,,,,,0,0,0,0,14,0,14,0,,,,,,,,,,,,,,,,,,,,,,,,,,,,,,,,,,,,,,,,,,,,,,,,,Listen to the question and speak out your answer!,1187.11083984375,None,1187.0921649456022,1189.109992980957,In Österreich gibt es eine richtige Kaffeehauskultur.,gibt,1188.4931716680526,None,1192.1599476099013,1193.1767530441284,1203.6938946008681,None,1205.1106679439545,None,./data/Subject_09/Session_01/Exp_data/2020_Aug_06_1817/rec_QA_run_02_block_000_trial_014.wav,,,,09,01,English,A2,True,False,True,False,False,True,True,True,True,True,True,True,No,2,No,No,No,No,2020_Aug_06_1817,nibs_stage_1,3.2.3,60.00022888270905,
2,0,2,0,,,,,0,0,0,0,15,0,15,0,,,,,,,,,,,,,,,,,,,,,,,,,,,,,,,,,,,,,,,,,,,,,,,,,Listen to the question and speak out your answer!,1208.1775269508362,None,1208.1431869983671,1210.1775679588318,An unserem Baum hängen viele reife Birnen,hängen,1209.560852742195,None,1212.7943606138228,1213.8110928535461,1224.7616216897964,None,1226.1784138679504,None,./data/Subject_09/Session_01/Exp_data/2020_Aug_06_1817/rec_QA_run_02_block_000_trial_015.wav,,,,09,01,English,A2,True,False,True,False,False,True,True,True,True,True,True,True,No,2,No,No,No,No,2020_Aug_06_1817,nibs_stage_1,3.2.3,60.00022888270905,
2,0,2,0,,,,,0,0,0,0,16,0,16,0,,,,,,,,,,,,,,,,,,,,,,,,,,,,,,,,,,,,,,,,,,,,,,,,,Listen to the question and speak out your answer!,1229.1793549060822,None,1229.1609642267226,1231.1786580085754,"Jede nennt sie Nini, aber ihr wirklicher Name ist Martina.",nennt,1230.5619616270064,1234.4455020427704,1234.8289687395095,1235.8455848693848,1245.762731528282,None,1247.1794810295105,None,./data/Subject_09/Session_01/Exp_data/2020_Aug_06_1817/rec_QA_run_02_block_000_trial_016.wav,,,,09,01,English,A2,True,False,True,False,False,True,True,True,True,True,True,True,No,2,No,No,No,No,2020_Aug_06_1817,nibs_stage_1,3.2.3,60.00022888270905,
2,0,2,0,,,,,0,0,0,0,17,0,17,0,,,,,,,,,,,,,,,,,,,,,,,,,,,,,,,,,,,,,,,,,,,,,,,,,Listen to the question and speak out your answer!,1250.2467658519745,None,1250.2286864995956,1252.2464008331299,Im Frühling besuchen viele Touristen unserer Hauptstadt.,besuchen,1251.6297375917434,None,1255.5965735673904,None,1266.830534672737,None,1268.2472658157349,None,./data/Subject_09/Session_01/Exp_data/2020_Aug_06_1817/rec_QA_run_02_block_000_trial_017.wav,,,,09,01,English,A2,True,False,True,False,False,True,True,True,True,True,True,True,No,2,No,No,No,No,2020_Aug_06_1817,nibs_stage_1,3.2.3,60.00022888270905,
2,0,2,0,,,,,0,0,0,0,18,0,18,0,,,,,,,,,,,,,,,,,,,,,,,,,,,,,,,,,,,,,,,,,,,,,,,,,Listen to the question and speak out your answer!,1271.3141028881073,None,1271.2798058509825,1273.3141939640045,Der Autohändler hat auf der Messe zehn Sportwagen eingekauft.,eingekauft,1272.69745657444,1276.4810190200806,1276.8644957304,None,1287.8984327077865,1288.9150128364563,1289.3150489330292,None,./data/Subject_09/Session_01/Exp_data/2020_Aug_06_1817/rec_QA_run_02_block_000_trial_018.wav,,,,09,01,English,A2,True,False,True,False,False,True,True,True,True,True,True,True,No,2,No,No,No,No,2020_Aug_06_1817,nibs_stage_1,3.2.3,60.00022888270905,
2,0,2,0,,,,,0,0,0,0,19,0,19,0,,,,,,,,,,,,,,,,,,,,,,,,,,,,,,,,,,,,,,,,,,,,,,,,,Listen to the question and speak out your answer!,1292.332051038742,None,1292.3142408847807,1294.3319489955902,"Mein Zimmer ist zu unordentlich, also muss ich es aufräumen.",aufräumen,1293.7152576208114,None,1297.6154446363448,1298.6321749687195,1308.9160306215285,None,1310.3327708244324,None,./data/Subject_09/Session_01/Exp_data/2020_Aug_06_1817/rec_QA_run_02_block_000_trial_019.wav,,,,09,01,English,A2,True,False,True,False,False,True,True,True,True,True,True,True,No,2,No,No,No,No,2020_Aug_06_1817,nibs_stage_1,3.2.3,60.00022888270905,
2,0,2,0,,,,,0,0,0,0,20,0,20,0,,,,,,,,,,,,,,,,,,,,,,,,,,,,,,,,,,,,,,,,,,,,,,,,,Listen to the question and speak out your answer!,1313.383229970932,None,1313.365322780609,1315.383054971695,"Araber lieben es, auf den Märkten zu handeln.",handeln,1314.7663457155227,None,1317.9665157556533,None,1329.9671325445174,None,1331.3838868141174,None,./data/Subject_09/Session_01/Exp_data/2020_Aug_06_1817/rec_QA_run_02_block_000_trial_020.wav,,,,09,01,English,A2,True,False,True,False,False,True,True,True,True,True,True,True,No,2,No,No,No,No,2020_Aug_06_1817,nibs_stage_1,3.2.3,60.00022888270905,
2,0,2,0,,,,,0,0,0,0,21,0,21,0,,,,,,,,,,,,,,,,,,,,,,,,,,,,,,,,,,,,,,,,,,,,,,,,,Listen to the question and speak out your answer!,1334.4512329101562,None,1334.4165060043333,1336.4508168697357,Die Lampe hängt über dem Bett.,hängt,1335.8341057062148,None,1338.0675537347793,1339.0842888355255,1351.0348846673965,None,1352.451665878296,None,./data/Subject_09/Session_01/Exp_data/2020_Aug_06_1817/rec_QA_run_02_block_000_trial_021.wav,,,,09,01,English,A2,True,False,True,False,False,True,True,True,True,True,True,True,No,2,No,No,No,No,2020_Aug_06_1817,nibs_stage_1,3.2.3,60.00022888270905,
2,0,2,0,,,,,0,0,0,0,22,0,22,0,,,,,,,,,,,,,,,,,,,,,,,,,,,,,,,,,,,,,,,,,,,,,,,,,Listen to the question and speak out your answer!,1355.4690718650818,None,1355.4508299350737,1357.468570947647,"Ich war begeistert, als ich das Spiel fast gewonnen hätte.",gewonnen,1356.8518626451491,1360.4020700454712,1360.7853505373,None,1372.0526356458663,None,1373.4694249629974,None,./data/Subject_09/Session_01/Exp_data/2020_Aug_06_1817/rec_QA_run_02_block_000_trial_022.wav,,,,09,01,English,A2,True,False,True,False,False,True,True,True,True,True,True,True,No,2,No,No,No,No,2020_Aug_06_1817,nibs_stage_1,3.2.3,60.00022888270905,
2,0,2,0,,,,,0,0,0,0,23,0,23,0,,,,,,,,,,,,,,,,,,,,,,,,,,,,,,,,,,,,,,,,,,,,,,,,,Listen to the question and speak out your answer!,1376.5199098587036,None,1376.5019309043882,1378.5196759700775,Das Auto wurde in Deutschland hergestellt.,hergestellt,1377.9029767274856,1380.4530358314514,1380.836458659172,None,1393.1037735700606,None,1394.5205218791962,None,./data/Subject_09/Session_01/Exp_data/2020_Aug_06_1817/rec_QA_run_02_block_000_trial_023.wav,,,,09,01,English,A2,True,False,True,False,False,True,True,True,True,True,True,True,No,2,No,No,No,No,2020_Aug_06_1817,nibs_stage_1,3.2.3,60.00022888270905,
2,0,2,0,,,,,0,0,0,0,24,0,24,0,,,,,,,,,,,,,,,,,,,,,,,,,,,,,,,,,,,,,,,,,,,,,,,,,Listen to the question and speak out your answer!,1397.5882380008698,None,1397.5697147130966,1399.5874478816986,Früher haben in Europa und Asien Neandertaler gelebt.,gelebt,1398.937386727333,1402.6542599201202,1403.0709376096725,None,1414.1382937192916,None,1415.554941892624,None,./data/Subject_09/Session_01/Exp_data/2020_Aug_06_1817/rec_QA_run_02_block_000_trial_024.wav,,,,09,01,English,A2,True,False,True,False,False,True,True,True,True,True,True,True,No,2,No,No,No,No,2020_Aug_06_1817,nibs_stage_1,3.2.3,60.00022888270905,
2,0,2,0,,,,,0,0,0,0,,,,,,,,,,,,,,,,,,,,,,,,,,,,,,,,,,,,,,,,,,1419.60524892807,None,,,,,,,,,,,,,,,,,,,,,,,,,,,,,09,01,English,A2,True,False,True,False,False,True,True,True,True,True,True,True,No,2,No,No,No,No,2020_Aug_06_1817,nibs_stage_1,3.2.3,60.00022888270905,
2,0,2,0,,,,,1,0,1,0,0,0,0,0,,,,,,,,,,,,,,,,,,,,,,,,,,,,,,,,,,,,,,,,,,,,,,,,,Listen to the question and speak out your answer!,1435.3059659004211,None,1435.2878834486007,1437.3060638904572,Der moderne Mensch ist ursprünglich aus Afrika gekommen.,gekommen,1436.689372754097,None,1440.489546751976,1441.5063018798828,1451.890237545967,None,1453.3069829940796,None,./data/Subject_09/Session_01/Exp_data/2020_Aug_06_1817/rec_QA_run_02_block_001_trial_000.wav,,,,09,01,English,A2,True,False,True,False,False,True,True,True,True,True,True,True,No,2,No,No,No,No,2020_Aug_06_1817,nibs_stage_1,3.2.3,60.00022888270905,
2,0,2,0,,,,,1,0,1,0,1,0,1,0,,,,,,,,,,,,,,,,,,,,,,,,,,,,,,,,,,,,,,,,,,,,,,,,,Listen to the question and speak out your answer!,1456.3419079780579,None,1456.32279651165,1458.340586900711,"Wir sind stolz auf das, was wir bis jetzt geschafft haben.",geschafft,1457.7237996816634,1461.0740718841553,1461.4574126958846,1462.4741458892822,1472.9246277570724,None,1474.3414418697357,None,./data/Subject_09/Session_01/Exp_data/2020_Aug_06_1817/rec_QA_run_02_block_001_trial_001.wav,,,,09,01,English,A2,True,False,True,False,False,True,True,True,True,True,True,True,No,2,No,No,No,No,2020_Aug_06_1817,nibs_stage_1,3.2.3,60.00022888270905,
2,0,2,0,,,,,1,0,1,0,2,0,2,0,,,,,,,,,,,,,,,,,,,,,,,,,,,,,,,,,,,,,,,,,,,,,,,,,Listen to the question and speak out your answer!,1477.375445842743,None,1477.3572634935379,1479.3750178813934,Morgens stehe ich um kurz vor sieben Uhr auf.,stehe,1478.7583205461501,None,1482.0918307065963,None,1493.9590286970138,None,1495.3757629394531,None,./data/Subject_09/Session_01/Exp_data/2020_Aug_06_1817/rec_QA_run_02_block_001_trial_002.wav,,,,09,01,English,A2,True,False,True,False,False,True,True,True,True,True,True,True,No,2,No,No,No,No,2020_Aug_06_1817,nibs_stage_1,3.2.3,60.00022888270905,
2,0,2,0,,,,,1,0,1,0,3,0,3,0,,,,,,,,,,,,,,,,,,,,,,,,,,,,,,,,,,,,,,,,,,,,,,,,,Listen to the question and speak out your answer!,1498.3927738666534,None,1498.374955844879,1500.3928139209747,Alex duscht morgens gerne im Badezimmer.,duscht,1499.7760026216506,1502.3927879333496,1502.776196694374,None,1514.976789689064,None,1516.3935239315033,None,./data/Subject_09/Session_01/Exp_data/2020_Aug_06_1817/rec_QA_run_02_block_001_trial_003.wav,,,,09,01,English,A2,True,False,True,False,False,True,True,True,True,True,True,True,No,2,No,No,No,No,2020_Aug_06_1817,nibs_stage_1,3.2.3,60.00022888270905,
2,0,2,0,,,,,1,0,1,0,4,0,4,0,,,,,,,,,,,,,,,,,,,,,,,,,,,,,,,,,,,,,,,,,,,,,,,,,Listen to the question and speak out your answer!,1519.4272439479828,None,1519.4094021081924,1521.4271249771118,Viele Zettel sind an der Wand gehängt.,gehängt,1520.8104145288466,None,1523.3772206068038,None,1536.0112216234206,None,1537.4279658794403,None,./data/Subject_09/Session_01/Exp_data/2020_Aug_06_1817/rec_QA_run_02_block_001_trial_004.wav,,,,09,01,English,A2,True,False,True,False,False,True,True,True,True,True,True,True,No,2,No,No,No,No,2020_Aug_06_1817,nibs_stage_1,3.2.3,60.00022888270905,
2,0,2,0,,,,,1,0,1,0,5,0,5,0,,,,,,,,,,,,,,,,,,,,,,,,,,,,,,,,,,,,,,,,,,,,,,,,,Listen to the question and speak out your answer!,1540.5129199028015,None,1540.4939214229582,1542.5115678310394,Das Unternehmen wird nächste Woche die Jahresprämie bezahlen.,bezahlen,1541.8948406934737,1545.578917980194,1545.961791729927,None,1557.095698571205,None,1558.5123908519745,None,./data/Subject_09/Session_01/Exp_data/2020_Aug_06_1817/rec_QA_run_02_block_001_trial_005.wav,,,,09,01,English,A2,True,False,True,False,False,True,True,True,True,True,True,True,No,2,No,No,No,No,2020_Aug_06_1817,nibs_stage_1,3.2.3,60.00022888270905,
2,0,2,0,,,,,1,0,1,0,6,0,6,0,,,,,,,,,,,,,,,,,,,,,,,,,,,,,,,,,,,,,,,,,,,,,,,,,Listen to the question and speak out your answer!,1561.5633809566498,None,1561.5449268341063,1563.5626509189606,"Das gute Wetter wird halten, weil ich keine Wolken sehe.",halten,1562.9459476232528,1566.2961330413818,1566.6794817209243,1567.6962049007416,1578.1467706918716,None,1579.5635130405426,None,./data/Subject_09/Session_01/Exp_data/2020_Aug_06_1817/rec_QA_run_02_block_001_trial_006.wav,,,,09,01,English,A2,True,False,True,False,False,True,True,True,True,True,True,True,No,2,No,No,No,No,2020_Aug_06_1817,nibs_stage_1,3.2.3,60.00022888270905,
2,0,2,0,,,,,1,0,1,0,7,0,7,0,,,,,,,,,,,,,,,,,,,,,,,,,,,,,,,,,,,,,,,,,,,,,,,,,Listen to the question and speak out your answer!,1582.6309428215027,None,1582.612672495842,1584.6304159164429,"Ich muss meinen Nachnamen oft langsam buchstabieren, weil er zu selten ist.",buchstabieren,1584.013751721382,1588.4972949028015,1588.8806416749953,None,1599.2145457029342,None,1600.6314849853516,None,./data/Subject_09/Session_01/Exp_data/2020_Aug_06_1817/rec_QA_run_02_block_001_trial_007.wav,,,,09,01,English,A2,True,False,True,False,False,True,True,True,True,True,True,True,No,2,No,No,No,No,2020_Aug_06_1817,nibs_stage_1,3.2.3,60.00022888270905,
2,0,2,0,,,,,1,0,1,0,8,0,8,0,,,,,,,,,,,,,,,,,,,,,,,,,,,,,,,,,,,,,,,,,,,,,,,,,Listen to the question and speak out your answer!,1603.6824848651886,None,1603.6638049602507,1605.6815419197083,An der Kasse bezahlen wir mit Bankomatkarte.,bezahlen,1605.0647866487502,1608.114977836609,1608.4983145952224,1609.515107870102,1620.2656156778335,None,1621.6823618412018,None,./data/Subject_09/Session_01/Exp_data/2020_Aug_06_1817/rec_QA_run_02_block_001_trial_008.wav,,,,09,01,English,A2,True,False,True,False,False,True,True,True,True,True,True,True,No,2,No,No,No,No,2020_Aug_06_1817,nibs_stage_1,3.2.3,60.00022888270905,
2,0,2,0,,,,,1,0,1,0,9,0,9,0,,,,,,,,,,,,,,,,,,,,,,,,,,,,,,,,,,,,,,,,,,,,,,,,,Listen to the question and speak out your answer!,1624.7330639362335,None,1624.7148909091948,1626.732609987259,Die Kinder basteln Puppen aus Filz und Watte.,basteln,1626.115883564949,None,1629.4494137525558,None,1641.316690659523,None,1642.7334530353546,None,./data/Subject_09/Session_01/Exp_data/2020_Aug_06_1817/rec_QA_run_02_block_001_trial_009.wav,,,,09,01,English,A2,True,False,True,False,False,True,True,True,True,True,True,True,No,2,No,No,No,No,2020_Aug_06_1817,nibs_stage_1,3.2.3,60.00022888270905,
2,0,2,0,,,,,1,0,1,0,10,0,10,0,,,,,,,,,,,,,,,,,,,,,,,,,,,,,,,,,,,,,,,,,,,,,,,,,Listen to the question and speak out your answer!,1645.8008248806,None,1645.7659968852995,1647.8004598617554,Lenas Hund Tobi wird immer am Abend gefüttert.,gefüttert,1647.183677649498,None,1650.5171925783156,None,1662.3845207452773,None,1663.80122590065,None,./data/Subject_09/Session_01/Exp_data/2020_Aug_06_1817/rec_QA_run_02_block_001_trial_010.wav,,,,09,01,English,A2,True,False,True,False,False,True,True,True,True,True,True,True,No,2,No,No,No,No,2020_Aug_06_1817,nibs_stage_1,3.2.3,60.00022888270905,
2,0,2,0,,,,,1,0,1,0,11,0,11,0,,,,,,,,,,,,,,,,,,,,,,,,,,,,,,,,,,,,,,,,,,,,,,,,,Listen to the question and speak out your answer!,1666.9181430339813,None,1666.8837145090101,1668.9181308746338,Nach der Party mussten wir das Haus aufräumen.,aufräumen,1668.3014285326003,1671.085237979889,1671.434939599037,None,1683.5022315740584,1684.518973827362,1684.9191148281097,None,./data/Subject_09/Session_01/Exp_data/2020_Aug_06_1817/rec_QA_run_02_block_001_trial_011.wav,,,,09,01,English,A2,True,False,True,False,False,True,True,True,True,True,True,True,No,2,No,No,No,No,2020_Aug_06_1817,nibs_stage_1,3.2.3,60.00022888270905,
2,0,2,0,,,,,1,0,1,0,12,0,12,0,,,,,,,,,,,,,,,,,,,,,,,,,,,,,,,,,,,,,,,,,,,,,,,,,Listen to the question and speak out your answer!,1687.936105966568,None,1687.9181758880613,1689.935919046402,Während der Weihnachtszeit gibt es unter dem Weihnachtsbaum Geschenke für die Kinder.,gibt,1689.3192186117171,None,1694.2861256361007,None,1704.519999718666,None,1705.9366509914398,None,./data/Subject_09/Session_01/Exp_data/2020_Aug_06_1817/rec_QA_run_02_block_001_trial_012.wav,,,,09,01,English,A2,True,False,True,False,False,True,True,True,True,True,True,True,No,2,No,No,No,No,2020_Aug_06_1817,nibs_stage_1,3.2.3,60.00022888270905,
2,0,2,0,,,,,1,0,1,0,13,0,13,0,,,,,,,,,,,,,,,,,,,,,,,,,,,,,,,,,,,,,,,,,,,,,,,,,Listen to the question and speak out your answer!,1709.004285812378,None,1708.9859456300735,1711.0037338733673,"Die Schüler sind begeistert, denn ihre Schule hat eine Exkursion organisiert.",organisiert,1710.3869857549666,1715.1374850273132,1715.520566678047,None,1725.5877516031264,None,1727.004511833191,None,./data/Subject_09/Session_01/Exp_data/2020_Aug_06_1817/rec_QA_run_02_block_001_trial_013.wav,,,,09,01,English,A2,True,False,True,False,False,True,True,True,True,True,True,True,No,2,No,No,No,No,2020_Aug_06_1817,nibs_stage_1,3.2.3,60.00022888270905,
2,0,2,0,,,,,1,0,1,0,14,0,14,0,,,,,,,,,,,,,,,,,,,,,,,,,,,,,,,,,,,,,,,,,,,,,,,,,Listen to the question and speak out your answer!,1730.0722408294678,None,1730.0537056207656,1732.0714638233185,Wir sind verlobt und wollen nächstes Jahr heiraten.,heiraten,1731.4547426462173,1734.605129957199,1734.9882657289504,None,1746.6554517507552,None,1748.0722889900208,None,./data/Subject_09/Session_01/Exp_data/2020_Aug_06_1817/rec_QA_run_02_block_001_trial_014.wav,,,,09,01,English,A2,True,False,True,False,False,True,True,True,True,True,True,True,No,2,No,No,No,No,2020_Aug_06_1817,nibs_stage_1,3.2.3,60.00022888270905,
2,0,2,0,,,,,1,0,1,0,15,0,15,0,,,,,,,,,,,,,,,,,,,,,,,,,,,,,,,,,,,,,,,,,,,,,,,,,Listen to the question and speak out your answer!,1751.1398379802704,None,1751.1047758579252,1753.1392178535461,"Er lief so schnell, dass ich kaum mit ihm Schritt halten konnte.",lief,1752.5224375486373,1756.006129026413,1756.3893835306167,None,1767.7233106851577,None,1769.140086889267,None,./data/Subject_09/Session_01/Exp_data/2020_Aug_06_1817/rec_QA_run_02_block_001_trial_015.wav,,,,09,01,English,A2,True,False,True,False,False,True,True,True,True,True,True,True,No,2,No,No,No,No,2020_Aug_06_1817,nibs_stage_1,3.2.3,60.00022888270905,
2,0,2,0,,,,,1,0,1,0,16,0,16,0,,,,,,,,,,,,,,,,,,,,,,,,,,,,,,,,,,,,,,,,,,,,,,,,,Listen to the question and speak out your answer!,1772.1736378669739,None,1772.1392688274382,1774.1738579273224,Der Test dauert nur fünfzehn Minuten.,dauert,1773.5569426774978,None,1776.3571116685866,None,1788.7577707529067,None,1790.1744859218597,None,./data/Subject_09/Session_01/Exp_data/2020_Aug_06_1817/rec_QA_run_02_block_001_trial_016.wav,,,,09,01,English,A2,True,False,True,False,False,True,True,True,True,True,True,True,No,2,No,No,No,No,2020_Aug_06_1817,nibs_stage_1,3.2.3,60.00022888270905,
2,0,2,0,,,,,1,0,1,0,17,0,17,0,,,,,,,,,,,,,,,,,,,,,,,,,,,,,,,,,,,,,,,,,,,,,,,,,Listen to the question and speak out your answer!,1793.2091839313507,None,1793.1903526067733,1795.2080609798431,In der Pause werden kleine Brötchen serviert.,serviert,1794.591380572319,1797.4415538311005,1797.8248805761336,1798.8416368961334,1809.7921795606612,1810.8089509010315,1811.2090559005737,None,./data/Subject_09/Session_01/Exp_data/2020_Aug_06_1817/rec_QA_run_02_block_001_trial_017.wav,,,,09,01,English,A2,True,False,True,False,False,True,True,True,True,True,True,True,No,2,No,No,No,No,2020_Aug_06_1817,nibs_stage_1,3.2.3,60.00022888270905,
2,0,2,0,,,,,1,0,1,0,18,0,18,0,,,,,,,,,,,,,,,,,,,,,,,,,,,,,,,,,,,,,,,,,,,,,,,,,Listen to the question and speak out your answer!,1814.2930669784546,None,1814.2581316709518,1816.292515039444,Diesen Irrtum musste er teuer bezahlen.,bezahlen,1815.6758055448531,None,1818.4427256345748,None,1830.8765797376632,None,1832.2933349609375,None,./data/Subject_09/Session_01/Exp_data/2020_Aug_06_1817/rec_QA_run_02_block_001_trial_018.wav,,,,09,01,English,A2,True,False,True,False,False,True,True,True,True,True,True,True,No,2,No,No,No,No,2020_Aug_06_1817,nibs_stage_1,3.2.3,60.00022888270905,
2,0,2,0,,,,,1,0,1,0,19,0,19,0,,,,,,,,,,,,,,,,,,,,,,,,,,,,,,,,,,,,,,,,,,,,,,,,,Listen to the question and speak out your answer!,1835.3285188674927,None,1835.3092207193374,1837.3269679546356,Ich habe das Bild an die Wand gehängt. ,gehängt,1836.710239624977,None,1839.2437286138534,None,1851.9110395669936,1852.9277648925781,1853.3278069496155,None,./data/Subject_09/Session_01/Exp_data/2020_Aug_06_1817/rec_QA_run_02_block_001_trial_019.wav,,,,09,01,English,A2,True,False,True,False,False,True,True,True,True,True,True,True,No,2,No,No,No,No,2020_Aug_06_1817,nibs_stage_1,3.2.3,60.00022888270905,
2,0,2,0,,,,,1,0,1,0,20,0,20,0,,,,,,,,,,,,,,,,,,,,,,,,,,,,,,,,,,,,,,,,,,,,,,,,,Listen to the question and speak out your answer!,1856.3619358539581,None,1856.3269838809965,1858.3614809513092,"Wenn du dich einen Moment ausruhst, kannst du mehr leisten.",ausruhst,1857.7446846723556,1860.9281809329987,1861.2782647371291,None,1872.9454655408858,None,1874.3622179031372,None,./data/Subject_09/Session_01/Exp_data/2020_Aug_06_1817/rec_QA_run_02_block_001_trial_020.wav,,,,09,01,English,A2,True,False,True,False,False,True,True,True,True,True,True,True,No,2,No,No,No,No,2020_Aug_06_1817,nibs_stage_1,3.2.3,60.00022888270905,
2,0,2,0,,,,,1,0,1,0,21,0,21,0,,,,,,,,,,,,,,,,,,,,,,,,,,,,,,,,,,,,,,,,,,,,,,,,,Listen to the question and speak out your answer!,1877.4124808311462,None,1877.378085541725,1879.4124908447266,"Das Messer ist so stumpf, dass wir nicht mehr brauchen.",brauchen,1878.76244161129,None,1882.2292096376418,None,1893.9632377386092,None,1895.3798828125,None,./data/Subject_09/Session_01/Exp_data/2020_Aug_06_1817/rec_QA_run_02_block_001_trial_021.wav,,,,09,01,English,A2,True,False,True,False,False,True,True,True,True,True,True,True,No,2,No,No,No,No,2020_Aug_06_1817,nibs_stage_1,3.2.3,60.00022888270905,
2,0,2,0,,,,,1,0,1,0,22,0,22,0,,,,,,,,,,,,,,,,,,,,,,,,,,,,,,,,,,,,,,,,,,,,,,,,,Listen to the question and speak out your answer!,1898.4316718578339,None,1898.4125039100645,1900.4302530288696,Man kann oft aus Fehlern lernen.,lernen,1899.813527560234,None,1902.1470045804977,None,1915.0143856763839,None,1916.4310879707336,None,./data/Subject_09/Session_01/Exp_data/2020_Aug_06_1817/rec_QA_run_02_block_001_trial_022.wav,,,,09,01,English,A2,True,False,True,False,False,True,True,True,True,True,True,True,No,2,No,No,No,No,2020_Aug_06_1817,nibs_stage_1,3.2.3,60.00022888270905,
2,0,2,0,,,,,1,0,1,0,23,0,23,0,,,,,,,,,,,,,,,,,,,,,,,,,,,,,,,,,,,,,,,,,,,,,,,,,Listen to the question and speak out your answer!,1919.4980189800262,None,1919.4636318206785,1921.4981179237366,Alkoholsucht schadet der Gesundheit.,schadet,1920.8479685544967,None,1923.7482516527175,None,1936.0486707448958,1937.0654950141907,1937.4655368328094,None,./data/Subject_09/Session_01/Exp_data/2020_Aug_06_1817/rec_QA_run_02_block_001_trial_023.wav,,,,09,01,English,A2,True,False,True,False,False,True,True,True,True,True,True,True,No,2,No,No,No,No,2020_Aug_06_1817,nibs_stage_1,3.2.3,60.00022888270905,
2,0,2,0,,,,,1,0,1,0,24,0,24,0,,,,,,,,,,,,,,,,,,,,,,,,,,,,,,,,,,,,,,,,,,,,,,,,,Listen to the question and speak out your answer!,1940.532527923584,None,1940.4980349063871,1942.5324499607086,Viele Indianer leben in Reservaten.,leben,1941.915866589546,1944.6658868789673,1945.0492505788802,None,1957.1165396928786,None,1958.5333108901978,None,./data/Subject_09/Session_01/Exp_data/2020_Aug_06_1817/rec_QA_run_02_block_001_trial_024.wav,,,,09,01,English,A2,True,False,True,False,False,True,True,True,True,True,True,True,No,2,No,No,No,No,2020_Aug_06_1817,nibs_stage_1,3.2.3,60.00022888270905,
2,0,2,0,,,,,1,0,1,0,,,,,,,,,,,,,,,,,,,,,,,,,,,,,,,,,,,,,,,,,,1962.5506219863892,None,,,,,,,,,,,,,,,,,,,,,,,,,,,,,09,01,English,A2,True,False,True,False,False,True,True,True,True,True,True,True,No,2,No,No,No,No,2020_Aug_06_1817,nibs_stage_1,3.2.3,60.00022888270905,
2,0,2,0,,,,,,,,,,,,,,,,,,,,,,,,,,,,,,,,,,,,,,,,,,,,,,,,,,,,,,,,,,,,,,,,,,,,,,,,,,,,,Please remain seated until further instruction via the earphone.,61.71848392486572,None,09,01,English,A2,True,False,True,False,False,True,True,True,True,True,True,True,No,2,No,No,No,No,2020_Aug_06_1817,nibs_stage_1,3.2.3,60.00022888270905,
