run.thisRepN,run.thisTrialN,run.thisN,run.thisIndex,QA_block.thisRepN,QA_block.thisTrialN,QA_block.thisN,QA_block.thisIndex,QA_trial.thisRepN,QA_trial.thisTrialN,QA_trial.thisN,QA_trial.thisIndex,fade_in_text.text,fade_in_text.started,fade_in_text.stopped,RS_intro_title.started,RS_intro_title.stopped,RS_intro_text.text,RS_intro_text.started,RS_intro_text.stopped,RS_intro_audio.started,RS_intro_audio.stopped,RS_rec_text.text,RS_rec_text.started,RS_rec_text.stopped,Pause_cont.started,Pause_cont.stopped,QA_intro_title.started,QA_intro_title.stopped,QA_intro_text.text,QA_intro_text.started,QA_intro_text.stopped,QA_intro_audio.started,QA_intro_audio.stopped,QA_intro_cont.started,QA_intro_cont.stopped,QA_rec_text.text,QA_rec_text.started,QA_rec_text.stopped,QA_rec_beep_hint.started,QA_rec_beep_hint.stopped,QA_rec_question.sen_text,QA_rec_question.cen_text,QA_rec_question.started,QA_rec_question.stopped,QA_rec_beep_start.started,QA_rec_beep_start.stopped,QA_rec_beep_end.started,QA_rec_beep_end.stopped,QA_rec_break.started,QA_rec_break.stopped,filename,participant,session,First language,German level,Full_screen,Instruction,Intro,Artifact,Cali_pre,Fade_in_out,Artifact_within,Resting_State,QA,Pause,Cali_post,End,Breakpoint_Cali_pre_trial,Breakpoint_Run,Breakpoint_RS_block,Breakpoint_QA_block,Breakpoint_QA_trial,Breakpoint_Cali_post_trial,date,expName,psychopyVersion,frameRate,
0,0,0,0,0,0,0,0,0,0,0,0,Please remain seated until further instruction via the earphone.,58.06274199485779,None,267.5073549747467,None," - Task: Keep seated and relaxed with either      
             opening or closing eyes                  
 - Beep sound with decreasing pitch: Block finish 
",267.5073549747467,None,267.5056819438935,None,"Please keep relaxed and open your eyes.
Note: Blinking is allowed.",290.52497911453247,470.53484892845154,473.93479800224304,None,487.93616104125977,None," - Task: Listen to the question& Speak out answer 
 - Melodious beep sound: Trial start              
 - Silent sound (blank): censored word            
 - Beep sound with increasing pitch: Rec. start   
 - Beep sound with decreasing pitch: Rec. finish  
",487.93616104125977,None,487.9166437149048,None,527.337611913681,None,Listen to the question and speak out your answer!,530.4224200248718,None,530.418842792511,532.4214360713959,Das Radio informiert Autofahrer über Staus.,informiert,531.804772233963,None,535.3217783927918,None,547.0055364131928,548.005597114563,548.4056129455566,549.4056780338287,./data/Subject_09/Session_01/Exp_data/2020_Aug_06_1702/rec_QA_run_00_block_000_trial_000.wav,09,01,English,A2,True,False,True,False,False,True,True,True,True,True,True,True,No,No,No,No,No,No,2020_Aug_06_1702,nibs_stage_1,3.2.3,59.98984508752534,
0,0,0,0,0,0,0,0,1,0,1,0,,,,,,,,,,,,,,,,,,,,,,,,,Listen to the question and speak out your answer!,551.4895129203796,None,551.4709651947022,553.4723091125488,Er möchte sich für meine Hilfe bedanken.,bedanken,552.8722864151001,None,555.5724533557892,None,568.073227262497,None,569.4732339382172,570.4732999801636,./data/Subject_09/Session_01/Exp_data/2020_Aug_06_1702/rec_QA_run_00_block_000_trial_001.wav,09,01,English,A2,True,False,True,False,False,True,True,True,True,True,True,True,No,No,No,No,No,No,2020_Aug_06_1702,nibs_stage_1,3.2.3,59.98984508752534,
0,0,0,0,0,0,0,0,2,0,2,0,,,,,,,,,,,,,,,,,,,,,,,,,Listen to the question and speak out your answer!,572.5401859283447,None,572.538557434082,574.5401179790497,Ich habe gestern Abend mit meiner Mutter geredet.,geredet,573.9236622810364,576.7734820842743,577.1902364253998,None,589.1242142677307,None,590.5243101119995,591.5242750644684,./data/Subject_09/Session_01/Exp_data/2020_Aug_06_1702/rec_QA_run_00_block_000_trial_002.wav,09,01,English,A2,True,False,True,False,False,True,True,True,True,True,True,True,No,No,No,No,No,No,2020_Aug_06_1702,nibs_stage_1,3.2.3,59.98984508752534,
0,0,0,0,0,0,0,0,3,0,3,0,,,,,,,,,,,,,,,,,,,,,,,,,Listen to the question and speak out your answer!,593.6079430580139,None,593.5897391319276,595.5912590026855,"Weil er so hungrig war, hat Franz einmal einen Apfel gestohlen.",gestohlen,594.9745133876801,598.7413129806519,599.1415353775025,600.1414511203766,610.1752453804016,None,611.5753419399261,612.575511932373,./data/Subject_09/Session_01/Exp_data/2020_Aug_06_1702/rec_QA_run_00_block_000_trial_003.wav,09,01,English,A2,True,False,True,False,False,True,True,True,True,True,True,True,No,No,No,No,No,No,2020_Aug_06_1702,nibs_stage_1,3.2.3,59.98984508752534,
0,0,0,0,0,0,0,0,4,0,4,0,,,,,,,,,,,,,,,,,,,,,,,,,Listen to the question and speak out your answer!,614.642322063446,None,614.6240138530732,616.6255741119385,Wir sollen großen Wert auf die Sparsamkeit beim Wasser legen.,legen,616.0089343547821,619.6757318973541,620.0924314022064,None,631.2096122264862,None,632.6097130775452,633.6097340583801,./data/Subject_09/Session_01/Exp_data/2020_Aug_06_1702/rec_QA_run_00_block_000_trial_004.wav,09,01,English,A2,True,False,True,False,False,True,True,True,True,True,True,True,No,No,No,No,No,No,2020_Aug_06_1702,nibs_stage_1,3.2.3,59.98984508752534,
0,0,0,0,0,0,0,0,5,0,5,0,,,,,,,,,,,,,,,,,,,,,,,,,Listen to the question and speak out your answer!,635.6933069229126,None,635.6751521110535,637.6767530441284,"Ich benutze mein Handy, um Textnachrichten zu senden.",senden,637.0599282741547,640.5601110458374,640.9768243789673,None,652.2607813835144,None,653.6607360839844,654.6609070301056,./data/Subject_09/Session_01/Exp_data/2020_Aug_06_1702/rec_QA_run_00_block_000_trial_005.wav,09,01,English,A2,True,False,True,False,False,True,True,True,True,True,True,True,No,No,No,No,No,No,2020_Aug_06_1702,nibs_stage_1,3.2.3,59.98984508752534,
0,0,0,0,0,0,0,0,6,0,6,0,,,,,,,,,,,,,,,,,,,,,,,,,Listen to the question and speak out your answer!,656.7451729774475,None,656.742722415924,658.7443079948425,"Seine Freunde können seinen Worten nicht trauen, weil er immer lügt.",lügt,658.110870218277,661.9783129692078,662.39478931427,None,673.3118964195252,674.311980009079,674.7120180130005,675.7120270729065,./data/Subject_09/Session_01/Exp_data/2020_Aug_06_1702/rec_QA_run_00_block_000_trial_006.wav,09,01,English,A2,True,False,True,False,False,True,True,True,True,True,True,True,No,No,No,No,No,No,2020_Aug_06_1702,nibs_stage_1,3.2.3,59.98984508752534,
0,0,0,0,0,0,0,0,7,0,7,0,,,,,,,,,,,,,,,,,,,,,,,,,Listen to the question and speak out your answer!,677.77911901474,None,677.7606827735901,679.7622981071472,"Bitte zieh deinen Mantel an, es ist kalt draußen.",zieh,679.1621192455292,None,682.6457072257996,None,694.3629683017731,695.363049030304,695.7630970478058,696.7633109092712,./data/Subject_09/Session_01/Exp_data/2020_Aug_06_1702/rec_QA_run_00_block_000_trial_007.wav,09,01,English,A2,True,False,True,False,False,True,True,True,True,True,True,True,No,No,No,No,No,No,2020_Aug_06_1702,nibs_stage_1,3.2.3,59.98984508752534,
0,0,0,0,0,0,0,0,8,0,8,0,,,,,,,,,,,,,,,,,,,,,,,,,Listen to the question and speak out your answer!,698.8300929069519,None,698.811913061142,700.829747915268,Bitte schließ die Tür!,schließ,700.1965642929077,701.6131129264832,702.0297723770142,703.0465040206909,715.3971072196961,None,716.8138709068298,None,./data/Subject_09/Session_01/Exp_data/2020_Aug_06_1702/rec_QA_run_00_block_000_trial_008.wav,09,01,English,A2,True,False,True,False,False,True,True,True,True,True,True,True,No,No,No,No,No,No,2020_Aug_06_1702,nibs_stage_1,3.2.3,59.98984508752534,
0,0,0,0,0,0,0,0,9,0,9,0,,,,,,,,,,,,,,,,,,,,,,,,,Listen to the question and speak out your answer!,719.8823909759521,None,719.8625061988831,721.8808250427246,"Um mein Auto zu kaufen, die Bank hat mir das Geld geliehen.",geliehen,721.2640694141388,724.7476439476013,725.097543334961,726.1143200397491,736.4648722171784,None,737.881630897522,None,./data/Subject_09/Session_01/Exp_data/2020_Aug_06_1702/rec_QA_run_00_block_000_trial_009.wav,09,01,English,A2,True,False,True,False,False,True,True,True,True,True,True,True,No,No,No,No,No,No,2020_Aug_06_1702,nibs_stage_1,3.2.3,59.98984508752534,
0,0,0,0,0,0,0,0,10,0,10,0,,,,,,,,,,,,,,,,,,,,,,,,,Listen to the question and speak out your answer!,740.9484860897064,None,740.9135999202729,742.9486041069031,Ich habe gestern einen interessanten Mann kennen gelernt.,kennen,742.3318172454834,745.6819360256195,746.0652771949768,None,757.5325563907624,None,758.9492769241333,None,./data/Subject_09/Session_01/Exp_data/2020_Aug_06_1702/rec_QA_run_00_block_000_trial_010.wav,09,01,English,A2,True,False,True,False,False,True,True,True,True,True,True,True,No,No,No,No,No,No,2020_Aug_06_1702,nibs_stage_1,3.2.3,59.98984508752534,
0,0,0,0,0,0,0,0,11,0,11,0,,,,,,,,,,,,,,,,,,,,,,,,,Listen to the question and speak out your answer!,762.0833959579468,None,762.0478437423707,764.0828649997711,Mein Freund schenkt mir eine Schachtel mit Schokolade.,schenkt,763.4662712574005,766.5162529945374,766.8997012138367,767.9164009094238,778.6503172874451,None,780.0670130252838,None,./data/Subject_09/Session_01/Exp_data/2020_Aug_06_1702/rec_QA_run_00_block_000_trial_011.wav,09,01,English,A2,True,False,True,False,False,True,True,True,True,True,True,True,No,No,No,No,No,No,2020_Aug_06_1702,nibs_stage_1,3.2.3,59.98984508752534,
0,0,0,0,0,0,0,0,12,0,12,0,,,,,,,,,,,,,,,,,,,,,,,,,Listen to the question and speak out your answer!,783.1180579662323,None,783.0990037441254,785.117527961731,Vater trinkt morgens eine Tasse Kaffee.,trinkt,784.5005522727967,787.117269039154,787.5006972312927,None,799.7013922691345,None,801.1180489063263,None,./data/Subject_09/Session_01/Exp_data/2020_Aug_06_1702/rec_QA_run_00_block_000_trial_012.wav,09,01,English,A2,True,False,True,False,False,True,True,True,True,True,True,True,No,No,No,No,No,No,2020_Aug_06_1702,nibs_stage_1,3.2.3,59.98984508752534,
0,0,0,0,0,0,0,0,13,0,13,0,,,,,,,,,,,,,,,,,,,,,,,,,Listen to the question and speak out your answer!,804.1849670410156,None,804.1500708580018,806.1849460601807,Das juristische Staatsexamen in Deutschland ist schwer zu bestehen.,bestehen,805.5682602882385,None,809.9684914112091,None,820.7690273284912,None,822.1859591007233,None,./data/Subject_09/Session_01/Exp_data/2020_Aug_06_1702/rec_QA_run_00_block_000_trial_013.wav,09,01,English,A2,True,False,True,False,False,True,True,True,True,True,True,True,No,No,No,No,No,No,2020_Aug_06_1702,nibs_stage_1,3.2.3,59.98984508752534,
0,0,0,0,0,0,0,0,14,0,14,0,,,,,,,,,,,,,,,,,,,,,,,,,Listen to the question and speak out your answer!,825.2197909355164,None,825.2010860919953,827.2193760871887,Morgen werden wir um sieben Uhr aufstehen.,aufstehen,826.6026412010193,829.1861200332642,829.569464302063,None,841.803405380249,842.820151090622,843.2201709747314,None,./data/Subject_09/Session_01/Exp_data/2020_Aug_06_1702/rec_QA_run_00_block_000_trial_014.wav,09,01,English,A2,True,False,True,False,False,True,True,True,True,True,True,True,No,No,No,No,No,No,2020_Aug_06_1702,nibs_stage_1,3.2.3,59.98984508752534,
0,0,0,0,0,0,0,0,15,0,15,0,,,,,,,,,,,,,,,,,,,,,,,,,Listen to the question and speak out your answer!,846.2542068958282,None,846.2188269615174,848.2537379264832,Muss ich mit dem Bus fahren oder kann ich zu Fuß gehen?,gehen,847.6370442867279,850.7210450172424,851.103868341446,None,862.8378242015839,None,864.2545568943024,None,./data/Subject_09/Session_01/Exp_data/2020_Aug_06_1702/rec_QA_run_00_block_000_trial_015.wav,09,01,English,A2,True,False,True,False,False,True,True,True,True,True,True,True,No,No,No,No,No,No,2020_Aug_06_1702,nibs_stage_1,3.2.3,59.98984508752534,
0,0,0,0,0,0,0,0,16,0,16,0,,,,,,,,,,,,,,,,,,,,,,,,,Listen to the question and speak out your answer!,867.2886140346527,None,867.2532188415528,869.2881309986115,Wir haben den Empfang der Sendung bestätigt.,bestätigt,868.6380942821503,871.1549129486084,871.571595287323,None,883.838870382309,None,885.2556209564209,None,./data/Subject_09/Session_01/Exp_data/2020_Aug_06_1702/rec_QA_run_00_block_000_trial_016.wav,09,01,English,A2,True,False,True,False,False,True,True,True,True,True,True,True,No,No,No,No,No,No,2020_Aug_06_1702,nibs_stage_1,3.2.3,59.98984508752534,
0,0,0,0,0,0,0,0,17,0,17,0,,,,,,,,,,,,,,,,,,,,,,,,,Listen to the question and speak out your answer!,888.3227260112762,None,888.304174232483,890.3225300312042,Sie beantwortete meine E-Mail schnell.,beantwortete,889.7058382987976,892.1559529304504,892.5059612751007,893.52268409729,904.906625366211,None,906.32333111763,None,./data/Subject_09/Session_01/Exp_data/2020_Aug_06_1702/rec_QA_run_00_block_000_trial_017.wav,09,01,English,A2,True,False,True,False,False,True,True,True,True,True,True,True,No,No,No,No,No,No,2020_Aug_06_1702,nibs_stage_1,3.2.3,59.98984508752534,
0,0,0,0,0,0,0,0,18,0,18,0,,,,,,,,,,,,,,,,,,,,,,,,,Listen to the question and speak out your answer!,909.3905029296875,None,909.3719902515412,911.3902599811554,"Wenn es kalt wird, muss ich einen warmen Pullover tragen.",tragen,910.7735663414002,None,914.4737373352051,None,925.9743042945862,None,927.3910689353943,None,./data/Subject_09/Session_01/Exp_data/2020_Aug_06_1702/rec_QA_run_00_block_000_trial_018.wav,09,01,English,A2,True,False,True,False,False,True,True,True,True,True,True,True,No,No,No,No,No,No,2020_Aug_06_1702,nibs_stage_1,3.2.3,59.98984508752534,
0,0,0,0,0,0,0,0,19,0,19,0,,,,,,,,,,,,,,,,,,,,,,,,,Listen to the question and speak out your answer!,930.4247400760651,None,930.4063792705537,932.4246799945831,"Ich wusste nicht, ob ich lachen oder weinen sollte.",lachen,931.8079632282257,None,935.1414562225342,None,946.9920683860779,None,948.4087989330292,None,./data/Subject_09/Session_01/Exp_data/2020_Aug_06_1702/rec_QA_run_00_block_000_trial_019.wav,09,01,English,A2,True,False,True,False,False,True,True,True,True,True,True,True,No,No,No,No,No,No,2020_Aug_06_1702,nibs_stage_1,3.2.3,59.98984508752534,
0,0,0,0,0,0,0,0,20,0,20,0,,,,,,,,,,,,,,,,,,,,,,,,,Listen to the question and speak out your answer!,951.4762160778046,None,951.4408559322358,953.4756569862366,"Ich sitze weit entfernt von der Bühne, also muss ich durch ein Fernglas schauen.",schauen,952.8590281963349,None,957.6592803955078,None,968.059849357605,None,969.4765400886536,None,./data/Subject_09/Session_01/Exp_data/2020_Aug_06_1702/rec_QA_run_00_block_000_trial_020.wav,09,01,English,A2,True,False,True,False,False,True,True,True,True,True,True,True,No,No,No,No,No,No,2020_Aug_06_1702,nibs_stage_1,3.2.3,59.98984508752534,
0,0,0,0,0,0,0,0,21,0,21,0,,,,,,,,,,,,,,,,,,,,,,,,,Listen to the question and speak out your answer!,972.5101430416107,None,972.4752268314362,974.5101449489594,Meine Oma hat mir Frühstück gekocht.,gekocht,973.8934193611145,None,976.4935663700104,None,989.0942123889923,990.1109430789948,990.5110540390015,None,./data/Subject_09/Session_01/Exp_data/2020_Aug_06_1702/rec_QA_run_00_block_000_trial_021.wav,09,01,English,A2,True,False,True,False,False,True,True,True,True,True,True,True,No,No,No,No,No,No,2020_Aug_06_1702,nibs_stage_1,3.2.3,59.98984508752534,
0,0,0,0,0,0,0,0,22,0,22,0,,,,,,,,,,,,,,,,,,,,,,,,,Listen to the question and speak out your answer!,993.5611999034882,None,993.5262701988221,995.5612258911133,Die Band beendete das Konzert unter großem Beifall.,beendete,994.944523191452,None,998.6446991920471,999.661416053772,1010.1452752113343,None,1011.5620310306549,None,./data/Subject_09/Session_01/Exp_data/2020_Aug_06_1702/rec_QA_run_00_block_000_trial_022.wav,09,01,English,A2,True,False,True,False,False,True,True,True,True,True,True,True,No,No,No,No,No,No,2020_Aug_06_1702,nibs_stage_1,3.2.3,59.98984508752534,
0,0,0,0,0,0,0,0,23,0,23,0,,,,,,,,,,,,,,,,,,,,,,,,,Listen to the question and speak out your answer!,1014.5964369773865,None,1014.5773382663727,1016.5955390930176,Bitte zahlen Sie an Kasse Nummer Zwei.,zahlen,1015.9788912296295,1018.4957129955292,1018.8790522575379,None,1031.1797073841094,None,1032.5965659618378,None,./data/Subject_09/Session_01/Exp_data/2020_Aug_06_1702/rec_QA_run_00_block_000_trial_023.wav,09,01,English,A2,True,False,True,False,False,True,True,True,True,True,True,True,No,No,No,No,No,No,2020_Aug_06_1702,nibs_stage_1,3.2.3,59.98984508752534,
0,0,0,0,0,0,0,0,24,0,24,0,,,,,,,,,,,,,,,,,,,,,,,,,Listen to the question and speak out your answer!,1035.6305921077728,None,1035.5951458930967,1037.6300640106201,Das laute Auto meines Nachbarn stört mich jeden Tag.,stört,1037.0135603904723,None,1040.8801773548125,1041.8968250751495,1052.214075422287,None,1053.6308760643005,None,./data/Subject_09/Session_01/Exp_data/2020_Aug_06_1702/rec_QA_run_00_block_000_trial_024.wav,09,01,English,A2,True,False,True,False,False,True,True,True,True,True,True,True,No,No,No,No,No,No,2020_Aug_06_1702,nibs_stage_1,3.2.3,59.98984508752534,
0,0,0,0,0,0,0,0,,,,,,,,,,,,,,,,,,1057.6482770442963,None,,,,,,,,,,,,,,,,,,,,,,,,,,09,01,English,A2,True,False,True,False,False,True,True,True,True,True,True,True,No,No,No,No,No,No,2020_Aug_06_1702,nibs_stage_1,3.2.3,59.98984508752534,
0,0,0,0,1,0,1,0,0,0,0,0,,,,,,,,,,,,,,,,,,,,,,,,,Listen to the question and speak out your answer!,1226.1563560962677,None,1226.1208031654357,1228.1564528942108,Alle Passagiere müssen an der Endstation aus dem Zug aussteigen.,aussteigen,1227.5396831989287,1231.4901978969574,1231.8733283042907,1232.8899669647217,1242.7405472755431,None,1244.1573009490967,None,./data/Subject_09/Session_01/Exp_data/2020_Aug_06_1702/rec_QA_run_00_block_001_trial_000.wav,09,01,English,A2,True,False,True,False,False,True,True,True,True,True,True,True,No,No,No,No,No,No,2020_Aug_06_1702,nibs_stage_1,3.2.3,59.98984508752534,
0,0,0,0,1,0,1,0,1,0,1,0,,,,,,,,,,,,,,,,,,,,,,,,,Listen to the question and speak out your answer!,1247.190983057022,None,1247.1726260662078,1249.1910209655762,Die Sonne scheint durch die grauen Wolken.,scheint,1248.5741814136504,None,1251.3076742649077,None,1263.7749863624572,1264.7916069030762,1265.1917281150818,None,./data/Subject_09/Session_01/Exp_data/2020_Aug_06_1702/rec_QA_run_00_block_001_trial_001.wav,09,01,English,A2,True,False,True,False,False,True,True,True,True,True,True,True,No,No,No,No,No,No,2020_Aug_06_1702,nibs_stage_1,3.2.3,59.98984508752534,
0,0,0,0,1,0,1,0,2,0,2,0,,,,,,,,,,,,,,,,,,,,,,,,,Listen to the question and speak out your answer!,1268.241975069046,None,1268.207061624527,1270.2419819831848,Du solltest deiner Geliebten Blumen zum Geburtstag schenken.,schenken,1269.591939306259,None,1273.4587963581084,None,1284.7927182674407,None,1286.2094941139221,None,./data/Subject_09/Session_01/Exp_data/2020_Aug_06_1702/rec_QA_run_00_block_001_trial_002.wav,09,01,English,A2,True,False,True,False,False,True,True,True,True,True,True,True,No,No,No,No,No,No,2020_Aug_06_1702,nibs_stage_1,3.2.3,59.98984508752534,
0,0,0,0,1,0,1,0,3,0,3,0,,,,,,,,,,,,,,,,,,,,,,,,,Listen to the question and speak out your answer!,1289.2930691242218,None,1289.2581110477447,1291.2930810451508,Wir sollten das Menü auf ein grünes Blatt Papier drucken.,drucken,1290.6763614177703,None,1294.4765664100646,None,1305.8439804077148,1306.860554933548,1307.2605800628662,None,./data/Subject_09/Session_01/Exp_data/2020_Aug_06_1702/rec_QA_run_00_block_001_trial_003.wav,09,01,English,A2,True,False,True,False,False,True,True,True,True,True,True,True,No,No,No,No,No,No,2020_Aug_06_1702,nibs_stage_1,3.2.3,59.98984508752534,
0,0,0,0,1,0,1,0,4,0,4,0,,,,,,,,,,,,,,,,,,,,,,,,,Listen to the question and speak out your answer!,1310.3459360599518,None,1310.3259014129637,1312.3441429138184,Die sieben kleinen Äpfel sollen ungefähr zwei Kilo wiegen.,wiegen,1311.7275103092193,None,1315.760996198654,None,1326.9282623291015,None,1328.3449840545654,None,./data/Subject_09/Session_01/Exp_data/2020_Aug_06_1702/rec_QA_run_00_block_001_trial_004.wav,09,01,English,A2,True,False,True,False,False,True,True,True,True,True,True,True,No,No,No,No,No,No,2020_Aug_06_1702,nibs_stage_1,3.2.3,59.98984508752534,
0,0,0,0,1,0,1,0,5,0,5,0,,,,,,,,,,,,,,,,,,,,,,,,,Listen to the question and speak out your answer!,1331.4125430583954,None,1331.3936460494995,1333.4119191169739,Die friedlichen Pandas kommen aus China.,kommen,1332.795213317871,None,1335.69535241127,1336.7121059894562,1347.9959863185882,1349.0127189159393,1349.412738084793,None,./data/Subject_09/Session_01/Exp_data/2020_Aug_06_1702/rec_QA_run_00_block_001_trial_005.wav,09,01,English,A2,True,False,True,False,False,True,True,True,True,True,True,True,No,No,No,No,No,No,2020_Aug_06_1702,nibs_stage_1,3.2.3,59.98984508752534,
0,0,0,0,1,0,1,0,6,0,6,0,,,,,,,,,,,,,,,,,,,,,,,,,Listen to the question and speak out your answer!,1352.4969000816345,None,1352.4614382266998,1354.4963660240173,Die Absolventen feiern ihren erfolgreichen Abschluss an der Universität.,feiern,1353.8464022636413,None,1358.7798872947692,None,1369.0471004009246,None,1370.4638509750366,None,./data/Subject_09/Session_01/Exp_data/2020_Aug_06_1702/rec_QA_run_00_block_001_trial_006.wav,09,01,English,A2,True,False,True,False,False,True,True,True,True,True,True,True,No,No,No,No,No,No,2020_Aug_06_1702,nibs_stage_1,3.2.3,59.98984508752534,
0,0,0,0,1,0,1,0,7,0,7,0,,,,,,,,,,,,,,,,,,,,,,,,,Listen to the question and speak out your answer!,1373.5307519435883,None,1373.4958457469938,1375.530774116516,Im botanischen Garten kann mann wir exotische Pflanzen sehen.,sehen,1374.9140714168548,None,1379.0477202892303,1380.0643401145935,1390.1148503780364,None,1391.5316240787506,None,./data/Subject_09/Session_01/Exp_data/2020_Aug_06_1702/rec_QA_run_00_block_001_trial_007.wav,09,01,English,A2,True,False,True,False,False,True,True,True,True,True,True,True,No,No,No,No,No,No,2020_Aug_06_1702,nibs_stage_1,3.2.3,59.98984508752534,
0,0,0,0,1,0,1,0,8,0,8,0,,,,,,,,,,,,,,,,,,,,,,,,,Listen to the question and speak out your answer!,1394.5656580924988,None,1394.5302669525145,1396.5652151107788,Ich lese gerne ein Buch vor dem Schlafengehen.,lese,1395.9484983444213,1398.698653936386,1399.0819903373717,None,1411.1493023395537,None,1412.5660560131073,None,./data/Subject_09/Session_01/Exp_data/2020_Aug_06_1702/rec_QA_run_00_block_001_trial_008.wav,09,01,English,A2,True,False,True,False,False,True,True,True,True,True,True,True,No,No,No,No,No,No,2020_Aug_06_1702,nibs_stage_1,3.2.3,59.98984508752534,
0,0,0,0,1,0,1,0,9,0,9,0,,,,,,,,,,,,,,,,,,,,,,,,,Listen to the question and speak out your answer!,1415.599673986435,None,1415.5646588325499,1417.5996179580688,Bei der Ausreise wird der Pass kontrolliert.,kontrolliert,1416.982921218872,None,1419.8830553054809,None,1432.1837004184722,None,1433.6003749370575,None,./data/Subject_09/Session_01/Exp_data/2020_Aug_06_1702/rec_QA_run_00_block_001_trial_009.wav,09,01,English,A2,True,False,True,False,False,True,True,True,True,True,True,True,No,No,No,No,No,No,2020_Aug_06_1702,nibs_stage_1,3.2.3,59.98984508752534,
0,0,0,0,1,0,1,0,10,0,10,0,,,,,,,,,,,,,,,,,,,,,,,,,Listen to the question and speak out your answer!,1436.6357300281525,None,1436.6158521652221,1438.6340401172638,"Keine Sorge, du wirst für diesen Fehler nicht die Schuld tragen.",tragen,1438.0173173904418,1441.6678459644318,1442.0508762359618,None,1453.2181442737578,1454.2348549365997,1454.634889125824,None,./data/Subject_09/Session_01/Exp_data/2020_Aug_06_1702/rec_QA_run_00_block_001_trial_010.wav,09,01,English,A2,True,False,True,False,False,True,True,True,True,True,True,True,No,No,No,No,No,No,2020_Aug_06_1702,nibs_stage_1,3.2.3,59.98984508752534,
0,0,0,0,1,0,1,0,11,0,11,0,,,,,,,,,,,,,,,,,,,,,,,,,Listen to the question and speak out your answer!,1457.7190840244293,None,1457.6835780620574,1459.7184510231018,"Ich habe eine verletzte Hand, kannst du bitte die Knöpfe meiner Jacke öffnen?",öffnen,1459.1017583370208,1463.3520948886871,1463.7353414058684,None,1474.302569246292,None,1475.6859769821167,None,./data/Subject_09/Session_01/Exp_data/2020_Aug_06_1702/rec_QA_run_00_block_001_trial_011.wav,09,01,English,A2,True,False,True,False,False,True,True,True,True,True,True,True,No,No,No,No,No,No,2020_Aug_06_1702,nibs_stage_1,3.2.3,59.98984508752534,
0,0,0,0,1,0,1,0,12,0,12,0,,,,,,,,,,,,,,,,,,,,,,,,,Listen to the question and speak out your answer!,1478.7701160907745,None,1478.7345541000366,1480.7695920467377,Die Universität hat meinen Studentenausweis ausgestellt.,ausgestellt,1480.1195393562316,1483.736396074295,1484.1530712604522,None,1495.3203543186187,None,1496.7370800971985,None,./data/Subject_09/Session_01/Exp_data/2020_Aug_06_1702/rec_QA_run_00_block_001_trial_012.wav,09,01,English,A2,True,False,True,False,False,True,True,True,True,True,True,True,No,No,No,No,No,No,2020_Aug_06_1702,nibs_stage_1,3.2.3,59.98984508752534,
0,0,0,0,1,0,1,0,13,0,13,0,,,,,,,,,,,,,,,,,,,,,,,,,Listen to the question and speak out your answer!,1499.804528951645,None,1499.7690307617186,1501.8040199279785,"Sie beschrieb der Polizei den Dieb so genau, dass diese ihn festnehmen konnnte.",beschrieb,1501.1872993469237,1505.670879125595,1506.0542303085326,None,1516.3880883216857,None,1517.804846048355,None,./data/Subject_09/Session_01/Exp_data/2020_Aug_06_1702/rec_QA_run_00_block_001_trial_013.wav,09,01,English,A2,True,False,True,False,False,True,True,True,True,True,True,True,No,No,No,No,No,No,2020_Aug_06_1702,nibs_stage_1,3.2.3,59.98984508752534,
0,0,0,0,1,0,1,0,14,0,14,0,,,,,,,,,,,,,,,,,,,,,,,,,Listen to the question and speak out your answer!,1520.8552470207214,None,1520.8367303848265,1522.8553719520569,"Ich musste meine Mitgliedschaft kündigen, weil sie zu teuer war.",kündigen,1522.2383934020995,None,1526.2052622795104,None,1537.4392343521117,1538.4558970928192,1538.8558599948883,None,./data/Subject_09/Session_01/Exp_data/2020_Aug_06_1702/rec_QA_run_00_block_001_trial_014.wav,09,01,English,A2,True,False,True,False,False,True,True,True,True,True,True,True,No,No,No,No,No,No,2020_Aug_06_1702,nibs_stage_1,3.2.3,59.98984508752534,
0,0,0,0,1,0,1,0,15,0,15,0,,,,,,,,,,,,,,,,,,,,,,,,,Listen to the question and speak out your answer!,1541.90620303154,None,1541.8716042518615,1543.9061930179596,"Ich muss mich bemühen, das Ziel des Projektes zu erreichen.",erreichen,1543.2561703681945,1546.8730099201202,1547.256351327896,None,1558.456944322586,None,1559.8736629486084,None,./data/Subject_09/Session_01/Exp_data/2020_Aug_06_1702/rec_QA_run_00_block_001_trial_015.wav,09,01,English,A2,True,False,True,False,False,True,True,True,True,True,True,True,No,No,No,No,No,No,2020_Aug_06_1702,nibs_stage_1,3.2.3,59.98984508752534,
0,0,0,0,1,0,1,0,16,0,16,0,,,,,,,,,,,,,,,,,,,,,,,,,Listen to the question and speak out your answer!,1562.941558122635,None,1562.9223452091217,1564.9407908916473,Zu Ostern gibt es für Kinder Ostereier und Süßigkeiten.,gibt,1564.3239043712615,None,1568.4574683666228,None,1579.5248993396758,None,1580.9414329528809,None,./data/Subject_09/Session_01/Exp_data/2020_Aug_06_1702/rec_QA_run_00_block_001_trial_016.wav,09,01,English,A2,True,False,True,False,False,True,True,True,True,True,True,True,No,No,No,No,No,No,2020_Aug_06_1702,nibs_stage_1,3.2.3,59.98984508752534,
0,0,0,0,1,0,1,0,17,0,17,0,,,,,,,,,,,,,,,,,,,,,,,,,Listen to the question and speak out your answer!,1584.0101289749146,None,1583.9901111602783,1586.0083689689636,Lisa tanzt im Ballett.,tanzt,1585.3917742729186,1587.0084319114685,1587.3584583759307,None,1600.5758682250976,1601.5925381183624,1601.9925889968872,None,./data/Subject_09/Session_01/Exp_data/2020_Aug_06_1702/rec_QA_run_00_block_001_trial_017.wav,09,01,English,A2,True,False,True,False,False,True,True,True,True,True,True,True,No,No,No,No,No,No,2020_Aug_06_1702,nibs_stage_1,3.2.3,59.98984508752534,
0,0,0,0,1,0,1,0,18,0,18,0,,,,,,,,,,,,,,,,,,,,,,,,,Listen to the question and speak out your answer!,1605.0610630512238,None,1605.0412271499633,1607.0595021247864,"Befristete Verträge enden automatisch, wenn sie nicht erneuert werden.",enden,1606.4427762985229,None,1611.1098173618316,None,1621.6435984134673,1622.6603119373322,1623.0603330135345,None,./data/Subject_09/Session_01/Exp_data/2020_Aug_06_1702/rec_QA_run_00_block_001_trial_018.wav,09,01,English,A2,True,False,True,False,False,True,True,True,True,True,True,True,No,No,No,No,No,No,2020_Aug_06_1702,nibs_stage_1,3.2.3,59.98984508752534,
0,0,0,0,1,0,1,0,19,0,19,0,,,,,,,,,,,,,,,,,,,,,,,,,Listen to the question and speak out your answer!,1626.1271851062775,None,1626.092257928848,1628.1272621154785,"Das Fenster ist offen, aber ich werde es schließen.",schließen,1627.510554409027,1630.527398109436,1630.910866355896,None,1642.7113593578338,None,1644.1281080245972,None,./data/Subject_09/Session_01/Exp_data/2020_Aug_06_1702/rec_QA_run_00_block_001_trial_019.wav,09,01,English,A2,True,False,True,False,False,True,True,True,True,True,True,True,No,No,No,No,No,No,2020_Aug_06_1702,nibs_stage_1,3.2.3,59.98984508752534,
0,0,0,0,1,0,1,0,20,0,20,0,,,,,,,,,,,,,,,,,,,,,,,,,Listen to the question and speak out your answer!,1647.178915977478,None,1647.1434102535247,1649.178472995758,Sie benutzt die Arbeit als Vorwand.,benutzt,1648.5284813404082,None,1651.2284654140472,None,1663.729111289978,None,1665.1459081172943,None,./data/Subject_09/Session_01/Exp_data/2020_Aug_06_1702/rec_QA_run_00_block_001_trial_020.wav,09,01,English,A2,True,False,True,False,False,True,True,True,True,True,True,True,No,No,No,No,No,No,2020_Aug_06_1702,nibs_stage_1,3.2.3,59.98984508752534,
0,0,0,0,1,0,1,0,21,0,21,0,,,,,,,,,,,,,,,,,,,,,,,,,Listen to the question and speak out your answer!,1668.2126989364624,None,1668.1945162296295,1670.2127850055695,Am Strand spielt ständig laute Musik.,spielt,1669.5962034225463,1672.1795489788055,1672.5629023075103,None,1684.7968822479247,None,1686.213613986969,None,./data/Subject_09/Session_01/Exp_data/2020_Aug_06_1702/rec_QA_run_00_block_001_trial_021.wav,09,01,English,A2,True,False,True,False,False,True,True,True,True,True,True,True,No,No,No,No,No,No,2020_Aug_06_1702,nibs_stage_1,3.2.3,59.98984508752534,
0,0,0,0,1,0,1,0,22,0,22,0,,,,,,,,,,,,,,,,,,,,,,,,,Listen to the question and speak out your answer!,1689.2805230617523,None,1689.2456003665923,1691.2805469036102,"Sie brauchen kein Ticket, das Konzert ist kostenlos.",brauchen,1690.6308094024657,1694.1475009918213,1694.5307043552398,1695.5474979877472,1705.831313228607,None,1707.2480900287628,None,./data/Subject_09/Session_01/Exp_data/2020_Aug_06_1702/rec_QA_run_00_block_001_trial_022.wav,09,01,English,A2,True,False,True,False,False,True,True,True,True,True,True,True,No,No,No,No,No,No,2020_Aug_06_1702,nibs_stage_1,3.2.3,59.98984508752534,
0,0,0,0,1,0,1,0,23,0,23,0,,,,,,,,,,,,,,,,,,,,,,,,,Listen to the question and speak out your answer!,1710.3165810108185,None,1710.2967122077941,1712.3151190280914,"Ich rechne fest damit, dass er kommt.",rechne,1711.6982983112334,None,1714.4651092052459,None,1726.8824203968047,None,1728.2991960048676,None,./data/Subject_09/Session_01/Exp_data/2020_Aug_06_1702/rec_QA_run_00_block_001_trial_023.wav,09,01,English,A2,True,False,True,False,False,True,True,True,True,True,True,True,No,No,No,No,No,No,2020_Aug_06_1702,nibs_stage_1,3.2.3,59.98984508752534,
0,0,0,0,1,0,1,0,24,0,24,0,,,,,,,,,,,,,,,,,,,,,,,,,Listen to the question and speak out your answer!,1731.366940021515,None,1731.3478172302246,1733.3661279678345,"Solange es regnet, bleiben wir hier.",bleiben,1732.7496503353118,1735.0328481197357,1735.416326379776,None,1747.9501963615417,1748.9670240879059,1749.3669641017914,None,./data/Subject_09/Session_01/Exp_data/2020_Aug_06_1702/rec_QA_run_00_block_001_trial_024.wav,09,01,English,A2,True,False,True,False,False,True,True,True,True,True,True,True,No,No,No,No,No,No,2020_Aug_06_1702,nibs_stage_1,3.2.3,59.98984508752534,
