artifact_trial.thisRepN,artifact_trial.thisTrialN,artifact_trial.thisN,artifact_trial.thisIndex,pre_trial.thisRepN,pre_trial.thisTrialN,pre_trial.thisN,pre_trial.thisIndex,run.thisRepN,run.thisTrialN,run.thisN,run.thisIndex,instruction_text.text,instruction_text.started,instruction_text.stopped,instruction_cont.started,instruction_cont.stopped,Artifact_intro_title.started,Artifact_intro_title.stopped,Artifact_intro_text.text,Artifact_intro_text.started,Artifact_intro_text.stopped,Artifact_intro_audio.started,Artifact_intro_audio.stopped,Artifact_intro_cont.started,Artifact_intro_cont.stopped,Artifact_rec_text.text,Artifact_rec_text.started,Artifact_rec_text.stopped,Artifact_rec_beep_hint.started,Artifact_rec_beep_hint.stopped,Artifact_rec_action.started,Artifact_rec_action.stopped,Artifact_rec_beep_start.started,Artifact_rec_beep_start.stopped,Artifact_rec_recording.started,Artifact_rec_recording.stopped,Artifact_rec_beep_end.started,Artifact_rec_beep_end.stopped,Artifact_rec_break.started,Artifact_rec_break.stopped,Cali_de_pre_intro_title.started,Cali_de_pre_intro_title.stopped,Cali_de_pre_intro_text.text,Cali_de_pre_intro_text.started,Cali_de_pre_intro_text.stopped,Cali_de_pre_intro_audio.started,Cali_de_pre_intro_audio.stopped,Cali_de_pre_intro_cont.started,Cali_de_pre_intro_cont.stopped,Cali_de_pre_rec_text.text,Cali_de_pre_rec_text.started,Cali_de_pre_rec_text.stopped,Cali_de_pre_rec_beep_hint.started,Cali_de_pre_rec_beep_hint.stopped,Cali_de_pre_rec_question_text.text,Cali_de_pre_rec_question_text.started,Cali_de_pre_rec_question_text.stopped,Cali_de_pre_rec_beep_start.started,Cali_de_pre_rec_beep_start.stopped,Cali_de_pre_rec_beep_end.started,Cali_de_pre_rec_beep_end.stopped,Cali_de_pre_rec_break.started,Cali_de_pre_rec_break.stopped,filename,RS_intro_title.started,RS_intro_title.stopped,RS_intro_text.text,RS_intro_text.started,RS_intro_text.stopped,RS_intro_audio.started,RS_intro_audio.stopped,participant,session,First language,German level,Full_screen,Instruction,Intro,Artifact,Cali_pre,Fade_in_out,Resting_State,QA,Pause,Cali_post,End,Breakpoint_Cali_pre_trial,Breakpoint_Run,Breakpoint_RS_block,Breakpoint_QA_block,Breakpoint_QA_trial,Breakpoint_Cali_post_trial,date,expName,psychopyVersion,frameRate,
0,0,0,0,,,,,,,,,"     Thank you for participating in the experiment: 

     Personalized non-invasive brain stimulation    
            for second language learning            
",13.411742210388184,None,57.39730715751648,None,61.16446018218994,88.16552209854126,"  - Task: Artifacts collection   
  - Please follow audio instruction              
",61.16446018218994,88.16552209854126,61.16392934322357,None,87.54872918128967,None,,91.19921708106995,None,91.18204438686371,93.18253016471863,92.56578528881073,None,95.96603715419769,None,97.36607611179352,107.36702609062195,107.76705825328827,108.76720809936523,109.1672911643982,110.16740608215332,,,,,,,,,,,,,,,,,,,,,,,,,,,,,,,,00,00,,A1,True,True,True,True,True,False,True,True,False,True,True,No,No,No,No,No,No,2020_Jul_01_1042,nibs_stage_1,3.2.3,59.99628090070863,
1,0,1,0,,,,,,,,,,,,,,,,,,,,,,,,112.18403005599976,None,112.18388330936432,114.18362402915955,113.56682908535004,None,116.96700012683868,117.96712398529053,118.36714923381805,128.36757397651672,128.76775920391083,129.76771116256714,130.16775012016296,131.16779613494873,,,,,,,,,,,,,,,,,,,,,,,,,,,,,,,,00,00,,A1,True,True,True,True,True,False,True,True,False,True,True,No,No,No,No,No,No,2020_Jul_01_1042,nibs_stage_1,3.2.3,59.99628090070863,
2,0,2,0,,,,,,,,,,,,,,,,,,,,,,,,133.20169401168823,None,133.20103538036346,135.20133900642395,134.58458530902863,None,137.98473513126373,None,139.38487827777863,149.38522720336914,149.78540408611298,None,151.18539118766785,152.18544697761536,,,,,,,,,,,,,,,,,,,,,,,,,,,,,,,,00,00,,A1,True,True,True,True,True,False,True,True,False,True,True,No,No,No,No,No,No,2020_Jul_01_1042,nibs_stage_1,3.2.3,59.99628090070863,
,,,,0,0,0,0,,,,,,,,,,,,,,,,,,,,,,,,,,,,,,,,,,155.23569798469543,185.23711609840393,"  - Task: Read out the displayed German sentence   
  - Melodious beep sound: Trial start              
  - Beep sound with increasing pitch: Rec. start   
  - Beep sound with decreasing pitch: Rec. finish  
",155.23569798469543,185.23711609840393,155.21859443187714,None,184.62032914161682,None,,192.38759112358093,None,192.3704892396927,194.37099504470825,Die Zähne werden geputzt und der Bart rasiert.,193.75434112548828,211.35539317131042,195.15424811840057,196.15424418449402,207.95521223545074,None,209.3553981781006,211.35539317131042,./data/Subject_00/Session_00/Exp_data/2020_Jul_01_1042/rec_cali_de_pre_trial_000.wav,,,,,,,,00,00,,A1,True,True,True,True,True,False,True,True,False,True,True,No,No,No,No,No,No,2020_Jul_01_1042,nibs_stage_1,3.2.3,59.99628090070863,
,,,,1,0,1,0,,,,,,,,,,,,,,,,,,,,,,,,,,,,,,,,,,,,,,,,,,,,213.40541005134583,None,213.38871228694916,215.3889172077179,Früher haben in Europa und Asien Neandertaler gelebt.,214.788889169693,232.3898479938507,216.18894612789154,None,228.98959815502167,None,230.38960003852844,232.3898479938507,./data/Subject_00/Session_00/Exp_data/2020_Jul_01_1042/rec_cali_de_pre_trial_001.wav,,,,,,,,00,00,,A1,True,True,True,True,True,False,True,True,False,True,True,No,No,No,No,No,No,2020_Jul_01_1042,nibs_stage_1,3.2.3,59.99628090070863,
,,,,,,,,,,,,,,,,,,,,,,,,,,,,,,,,,,,,,,,,,,,,,,,,,,,,,,,,,,,,,,,,,238.42316508293152,None," - Task: Keep seated and relaxed with either      
             opening or closing eyes                  
 - Beep sound with decreasing pitch: Block finish 
",238.42316508293152,None,238.42261457443237,None,,,,,,,,,,,,,,,,,,,,,,,,,,
