run.thisRepN,run.thisTrialN,run.thisN,run.thisIndex,QA_block.thisRepN,QA_block.thisTrialN,QA_block.thisN,QA_block.thisIndex,QA_trial.thisRepN,QA_trial.thisTrialN,QA_trial.thisN,QA_trial.thisIndex,fade_in_text.text,fade_in_text.started,fade_in_text.stopped,Pause_cont.started,Pause_cont.stopped,QA_intro_title.started,QA_intro_title.stopped,QA_intro_text.text,QA_intro_text.started,QA_intro_text.stopped,QA_intro_audio.started,QA_intro_audio.stopped,QA_intro_cont.started,QA_intro_cont.stopped,QA_rec_text.text,QA_rec_text.started,QA_rec_text.stopped,QA_rec_beep_hint.started,QA_rec_beep_hint.stopped,QA_rec_question.sen_text,QA_rec_question.cen_text,QA_rec_question.started,QA_rec_question.stopped,QA_rec_beep_start.started,QA_rec_beep_start.stopped,QA_rec_beep_end.started,QA_rec_beep_end.stopped,QA_rec_break.started,QA_rec_break.stopped,filename,participant,session,First language,German level,Full_screen,Instruction,Intro,Artifact,Cali_pre,Fade_in_out,Resting_State,QA,Pause,Cali_post,End,Breakpoint_Cali_pre_trial,Breakpoint_Run,Breakpoint_RS_block,Breakpoint_QA_block,Breakpoint_QA_trial,Breakpoint_Cali_post_trial,date,expName,psychopyVersion,frameRate,
1,0,1,0,0,0,0,0,5,0,5,0,Please remain seated until further instruction via the earphone.,96.42970609664917,None,100.46236515045166,None,116.33000898361206,None," - Task: Listen to the question& Speak out answer 
 - Melodious beep sound: Trial start              
 - Silent sound (blank): censored word            
 - Beep sound with increasing pitch: Rec. start   
 - Beep sound with decreasing pitch: Rec. finish  
",116.33000898361206,None,116.32676703929901,None,155.71471095085144,None,Listen to the question and speak out your answer!,159.34805703163147,None,159.3286472082138,161.33296704292297,Dieser Supermarkt hat nur am Tage geöffnet.,geöffnet,160.7326806306839,None,163.91622145175933,None,175.93354351520537,None,None,None,./data/Subject_00/Session_00/Exp_data/2020_Mai_31_1606/rec_QA_run_01_block_000_trial_005.wav,00,00,,A1,False,False,True,False,False,True,False,True,True,True,True,No,1,No,0,5,No,2020_Mai_31_1606,nibs_stage_1,3.2.3,59.9923334382241,
1,0,1,0,0,0,0,0,6,0,6,0,,,,,,,,,,,,,,,Listen to the question and speak out your answer!,178.366357088089,None,178.34765083789824,180.35033416748047,Er hängte seine Jacke über die Lehne des Stuhls.,hängte,179.73387749195098,None,183.08376867771148,None,194.93445761203765,None,None,None,./data/Subject_00/Session_00/Exp_data/2020_Mai_31_1606/rec_QA_run_01_block_000_trial_006.wav,00,00,,A1,False,False,True,False,False,True,False,True,True,True,True,No,1,No,0,5,No,2020_Mai_31_1606,nibs_stage_1,3.2.3,59.9923334382241,
1,0,1,0,0,0,0,0,7,0,7,0,,,,,,,,,,,,,,,Listen to the question and speak out your answer!,198.35031700134277,None,198.3319669485092,200.33473801612854,"Früh übt sich, wer ein Meister werden will.",werden,199.71796567440032,202.4514820575714,202.86819250583648,None,214.9187224626541,None,216.31892895698547,None,./data/Subject_00/Session_00/Exp_data/2020_Mai_31_1606/rec_QA_run_01_block_000_trial_007.wav,00,00,,A1,False,False,True,False,False,True,False,True,True,True,True,No,1,No,0,5,No,2020_Mai_31_1606,nibs_stage_1,3.2.3,59.9923334382241,
1,0,1,0,0,0,0,0,8,0,8,0,,,,,,,,,,,,,,,Listen to the question and speak out your answer!,218.35113716125488,None,218.333034825325,220.33563804626465,Beim Spinat und Kohl wird man die Blätter essen.,essen,219.71893150806426,222.5024390220642,222.91906650066375,None,234.91966564655303,None,236.3197729587555,None,./data/Subject_00/Session_00/Exp_data/2020_Mai_31_1606/rec_QA_run_01_block_000_trial_008.wav,00,00,,A1,False,False,True,False,False,True,False,True,True,True,True,No,1,No,0,5,No,2020_Mai_31_1606,nibs_stage_1,3.2.3,59.9923334382241,
1,0,1,0,0,0,0,0,9,0,9,0,,,,,,,,,,,,,,,Listen to the question and speak out your answer!,238.3521580696106,None,238.33387882709502,240.3366711139679,Er hat den Vorgang im Tagebuch beschrieben.,beschrieben,239.72012145519255,None,242.57053048610686,None,254.91923148632048,None,256.3194751739502,None,./data/Subject_00/Session_00/Exp_data/2020_Mai_31_1606/rec_QA_run_01_block_000_trial_009.wav,00,00,,A1,False,False,True,False,False,True,False,True,True,True,True,No,1,No,0,5,No,2020_Mai_31_1606,nibs_stage_1,3.2.3,59.9923334382241,
1,0,1,0,0,0,0,0,10,0,10,0,,,,,,,,,,,,,,,Listen to the question and speak out your answer!,258.35341906547546,None,258.3335810422897,260.33639001846313,Wir leben alle auf der Erde.,leben,259.7196305513382,None,261.9864385843277,None,274.92052562236785,275.9207990169525,276.32079815864563,None,./data/Subject_00/Session_00/Exp_data/2020_Mai_31_1606/rec_QA_run_01_block_000_trial_010.wav,00,00,,A1,False,False,True,False,False,True,False,True,True,True,True,No,1,No,0,5,No,2020_Mai_31_1606,nibs_stage_1,3.2.3,59.9923334382241,
1,0,1,0,0,0,0,0,11,0,11,0,,,,,,,,,,,,,,,Listen to the question and speak out your answer!,278.35440015792847,None,278.33490402698516,280.3376340866089,Der Verletzte braucht dringend einen Arzt zu besuchen.,besuchen,279.7377045869827,282.82143115997314,283.2379384756088,None,294.9560666799545,None,None,None,./data/Subject_00/Session_00/Exp_data/2020_Mai_31_1606/rec_QA_run_01_block_000_trial_011.wav,00,00,,A1,False,False,True,False,False,True,False,True,True,True,True,No,1,No,0,5,No,2020_Mai_31_1606,nibs_stage_1,3.2.3,59.9923334382241,
1,0,1,0,0,0,0,0,12,0,12,0,,,,,,,,,,,,,,,Listen to the question and speak out your answer!,298.37834310531616,None,298.3522258520126,300.3717279434204,"Sie sollten mehr Obst essen, Vitamin C wird Ihnen bei Erkältungen helfen.",helfen,299.7549575090408,304.40533900260925,304.78900249004363,305.8052740097046,314.95608360767363,None,None,None,./data/Subject_00/Session_00/Exp_data/2020_Mai_31_1606/rec_QA_run_01_block_000_trial_012.wav,00,00,,A1,False,False,True,False,False,True,False,True,True,True,True,No,1,No,0,5,No,2020_Mai_31_1606,nibs_stage_1,3.2.3,59.9923334382241,
1,0,1,0,0,0,0,0,13,0,13,0,,,,,,,,,,,,,,,Listen to the question and speak out your answer!,318.3754141330719,None,318.35345299243926,320.3728530406952,Er konnte auf alle Fragen des Quiz antworten.,antworten,319.756246638298,322.50604796409607,322.89062054157256,None,334.95988566875457,None,None,None,./data/Subject_00/Session_00/Exp_data/2020_Mai_31_1606/rec_QA_run_01_block_000_trial_013.wav,00,00,,A1,False,False,True,False,False,True,False,True,True,True,True,No,1,No,0,5,No,2020_Mai_31_1606,nibs_stage_1,3.2.3,59.9923334382241,
1,0,1,0,0,0,0,0,14,0,14,0,,,,,,,,,,,,,,,Listen to the question and speak out your answer!,338.37775897979736,None,338.35429604053496,340.3737370967865,Sie kümmert sich nur um ihre eigenen Angelegenheiten.,kümmert,339.75680668354033,None,343.3902626752853,None,354.95783360004424,None,None,None,./data/Subject_00/Session_00/Exp_data/2020_Mai_31_1606/rec_QA_run_01_block_000_trial_014.wav,00,00,,A1,False,False,True,False,False,True,False,True,True,True,True,No,1,No,0,5,No,2020_Mai_31_1606,nibs_stage_1,3.2.3,59.9923334382241,
1,0,1,0,0,0,0,0,15,0,15,0,,,,,,,,,,,,,,,Listen to the question and speak out your answer!,358.37625002861023,None,358.355336022377,360.3758759498596,Ihre Freundlichkeit gab mir ein Gefühl von Sicherheit.,gab,359.75794751644133,362.9760091304779,363.35813863277434,None,374.958726477623,None,None,None,./data/Subject_00/Session_00/Exp_data/2020_Mai_31_1606/rec_QA_run_01_block_000_trial_015.wav,00,00,,A1,False,False,True,False,False,True,False,True,True,True,True,No,1,No,0,5,No,2020_Mai_31_1606,nibs_stage_1,3.2.3,59.9923334382241,
1,0,1,0,0,0,0,0,16,0,16,0,,,,,,,,,,,,,,,Listen to the question and speak out your answer!,378.37750816345215,None,378.35644896030425,380.3757109642029,"Die Deutschen sind immer organisiert und werden alles planen, bevor sie irgendetwas tun.",planen,379.7592304468155,None,385.2257986783981,None,394.9431534528732,None,None,None,./data/Subject_00/Session_00/Exp_data/2020_Mai_31_1606/rec_QA_run_01_block_000_trial_016.wav,00,00,,A1,False,False,True,False,False,True,False,True,True,True,True,No,1,No,0,5,No,2020_Mai_31_1606,nibs_stage_1,3.2.3,59.9923334382241,
1,0,1,0,0,0,0,0,17,0,17,0,,,,,,,,,,,,,,,Listen to the question and speak out your answer!,398.36063599586487,None,398.34074289798735,400.3601551055908,Alexander Bell hat das Telefon erfunden.,erfunden,399.7433245897293,402.4602451324463,402.843496632576,403.8602590560913,414.9441276311874,415.96080899238586,None,None,./data/Subject_00/Session_00/Exp_data/2020_Mai_31_1606/rec_QA_run_01_block_000_trial_017.wav,00,00,,A1,False,False,True,False,False,True,False,True,True,True,True,No,1,No,0,5,No,2020_Mai_31_1606,nibs_stage_1,3.2.3,59.9923334382241,
1,0,1,0,0,0,0,0,18,0,18,0,,,,,,,,,,,,,,,Listen to the question and speak out your answer!,418.36122012138367,None,418.34161002635955,420.3611559867859,Auf der Youtube kann man Videos anschauen.,anschauen,419.7443195104599,422.3277750015259,422.71092755794524,423.7279210090637,434.94519646167754,None,None,None,./data/Subject_00/Session_00/Exp_data/2020_Mai_31_1606/rec_QA_run_01_block_000_trial_018.wav,00,00,,A1,False,False,True,False,False,True,False,True,True,True,True,No,1,No,0,5,No,2020_Mai_31_1606,nibs_stage_1,3.2.3,59.9923334382241,
1,0,1,0,0,0,0,0,19,0,19,0,,,,,,,,,,,,,,,Listen to the question and speak out your answer!,438.36251616477966,None,438.34287292957305,440.3620390892029,Ich schnitt das Fleisch in Würfel.,schnitt,439.74532754421233,None,442.04546744823455,None,454.9460776567459,None,None,None,./data/Subject_00/Session_00/Exp_data/2020_Mai_31_1606/rec_QA_run_01_block_000_trial_019.wav,00,00,,A1,False,False,True,False,False,True,False,True,True,True,True,No,1,No,0,5,No,2020_Mai_31_1606,nibs_stage_1,3.2.3,59.9923334382241,
1,0,1,0,0,0,0,0,20,0,20,0,,,,,,,,,,,,,,,Listen to the question and speak out your answer!,458.36369800567627,None,458.3436148881912,460.36309695243835,"Wir haben eine Testversion heruntergeladen, um die Nutzbarkeit der Software zu testen.",heruntergeladen,459.7463136434555,465.0966200828552,465.48000462055205,466.4966781139374,474.94717366695403,None,None,None,./data/Subject_00/Session_00/Exp_data/2020_Mai_31_1606/rec_QA_run_01_block_000_trial_020.wav,00,00,,A1,False,False,True,False,False,True,False,True,True,True,True,No,1,No,0,5,No,2020_Mai_31_1606,nibs_stage_1,3.2.3,59.9923334382241,
1,0,1,0,0,0,0,0,21,0,21,0,,,,,,,,,,,,,,,Listen to the question and speak out your answer!,478.3645451068878,None,478.344602894783,480.3640151023865,Sein Versprechen klingt glaubwürdig.,klingt,479.7474566221237,None,482.4142435312271,None,494.9491124868393,None,None,None,./data/Subject_00/Session_00/Exp_data/2020_Mai_31_1606/rec_QA_run_01_block_000_trial_021.wav,00,00,,A1,False,False,True,False,False,True,False,True,True,True,True,No,1,No,0,5,No,2020_Mai_31_1606,nibs_stage_1,3.2.3,59.9923334382241,
1,0,1,0,0,0,0,0,22,0,22,0,,,,,,,,,,,,,,,Listen to the question and speak out your answer!,498.36530900001526,None,498.3455889940262,500.3650281429291,Er pflegte jeden Abend auf Pferden zu reiten und durch die Wälder zu gehen.,reiten,499.7483855009079,None,504.5487306833267,505.56532096862793,514.9490535974503,None,None,None,./data/Subject_00/Session_00/Exp_data/2020_Mai_31_1606/rec_QA_run_01_block_000_trial_022.wav,00,00,,A1,False,False,True,False,False,True,False,True,True,True,True,No,1,No,0,5,No,2020_Mai_31_1606,nibs_stage_1,3.2.3,59.9923334382241,
1,0,1,0,0,0,0,0,23,0,23,0,,,,,,,,,,,,,,,Listen to the question and speak out your answer!,518.3667199611664,None,518.3467128992081,520.3660621643066,"Wir mussten ein amtliches Formular ausfüllen, als wir geheiratet haben.",ausfüllen,519.7493706464768,524.0665440559387,524.4505666017533,None,534.9500685453415,None,None,None,./data/Subject_00/Session_00/Exp_data/2020_Mai_31_1606/rec_QA_run_01_block_000_trial_023.wav,00,00,,A1,False,False,True,False,False,True,False,True,True,True,True,No,1,No,0,5,No,2020_Mai_31_1606,nibs_stage_1,3.2.3,59.9923334382241,
1,0,1,0,0,0,0,0,24,0,24,0,,,,,,,,,,,,,,,Listen to the question and speak out your answer!,538.3676691055298,None,538.3479109525681,540.3670451641083,"Tut mir leid, darf ich fragen warum?",fragen,539.7503736734391,None,542.6504934549332,None,554.952125620842,None,None,None,./data/Subject_00/Session_00/Exp_data/2020_Mai_31_1606/rec_QA_run_01_block_000_trial_024.wav,00,00,,A1,False,False,True,False,False,True,False,True,True,True,True,No,1,No,0,5,No,2020_Mai_31_1606,nibs_stage_1,3.2.3,59.9923334382241,
1,0,1,0,0,0,0,0,,,,,,,,559.3847379684448,None,,,,,,,,,,,,,,,,,,,,,,,,,,00,00,,A1,False,False,True,False,False,True,False,True,True,True,True,No,1,No,0,5,No,2020_Mai_31_1606,nibs_stage_1,3.2.3,59.9923334382241,
1,0,1,0,1,0,1,0,0,0,0,0,,,,,,,,,,,,,,,Listen to the question and speak out your answer!,748.4116141796112,None,748.3901000738144,750.4110791683197,"Ausländische Studenten, die wenig Geld haben, brauchen ein Stipendium.",brauchen,749.7941766500473,754.2786469459534,754.6610406160355,755.6778140068054,764.9948476076127,766.0116350650787,766.4126091003418,None,./data/Subject_00/Session_00/Exp_data/2020_Mai_31_1606/rec_QA_run_01_block_001_trial_000.wav,00,00,,A1,False,False,True,False,False,True,False,True,True,True,True,No,1,No,0,5,No,2020_Mai_31_1606,nibs_stage_1,3.2.3,59.9923334382241,
1,0,1,0,1,0,1,0,1,0,1,0,,,,,,,,,,,,,,,Listen to the question and speak out your answer!,768.4452559947968,None,768.4267149686814,770.4454669952393,Der Ton macht die Musik.,macht,769.8286104917527,771.4785690307617,771.8618696451188,None,785.0294786214829,786.0460240840912,None,None,./data/Subject_00/Session_00/Exp_data/2020_Mai_31_1606/rec_QA_run_01_block_001_trial_001.wav,00,00,,A1,False,False,True,False,False,True,False,True,True,True,True,No,1,No,0,5,No,2020_Mai_31_1606,nibs_stage_1,3.2.3,59.9923334382241,
1,0,1,0,1,0,1,0,2,0,2,0,,,,,,,,,,,,,,,Listen to the question and speak out your answer!,788.4129159450531,None,788.3933768987656,790.412840127945,Josi hat letzte Nacht nur wenig Schlaf gefunden.,gefunden,789.796446633339,None,793.1962395429612,None,804.9968546152115,806.0135731697083,None,None,./data/Subject_00/Session_00/Exp_data/2020_Mai_31_1606/rec_QA_run_01_block_001_trial_002.wav,00,00,,A1,False,False,True,False,False,True,False,True,True,True,True,No,1,No,0,5,No,2020_Mai_31_1606,nibs_stage_1,3.2.3,59.9923334382241,
1,0,1,0,1,0,1,0,3,0,3,0,,,,,,,,,,,,,,,Listen to the question and speak out your answer!,808.4145400524139,None,808.3944679021836,810.4140000343323,Sonja nimmt ihren Tee mit Milch und Zucker.,nimmt,809.797192645073,None,812.9307976484299,813.9474160671234,824.9979234457016,None,None,None,./data/Subject_00/Session_00/Exp_data/2020_Mai_31_1606/rec_QA_run_01_block_001_trial_003.wav,00,00,,A1,False,False,True,False,False,True,False,True,True,True,True,No,1,No,0,5,No,2020_Mai_31_1606,nibs_stage_1,3.2.3,59.9923334382241,
1,0,1,0,1,0,1,0,4,0,4,0,,,,,,,,,,,,,,,Listen to the question and speak out your answer!,828.4154260158539,None,828.39546687603,830.414783000946,Du muss deine schmutzige Kleidung in der Wäscherei waschen.,waschen,829.7981885194779,None,833.3651295423508,None,844.998807501793,None,None,None,./data/Subject_00/Session_00/Exp_data/2020_Mai_31_1606/rec_QA_run_01_block_001_trial_004.wav,00,00,,A1,False,False,True,False,False,True,False,True,True,True,True,No,1,No,0,5,No,2020_Mai_31_1606,nibs_stage_1,3.2.3,59.9923334382241,
1,0,1,0,1,0,1,0,5,0,5,0,,,,,,,,,,,,,,,Listen to the question and speak out your answer!,848.4187960624695,None,848.3963599920273,850.4167649745941,"Die Suppe wird nicht so heiß gegessen, wie sie gekocht wird.",gegessen,849.7991204977036,None,853.4992516756058,None,864.9998315095902,None,None,None,./data/Subject_00/Session_00/Exp_data/2020_Mai_31_1606/rec_QA_run_01_block_001_trial_005.wav,00,00,,A1,False,False,True,False,False,True,False,True,True,True,True,No,1,No,0,5,No,2020_Mai_31_1606,nibs_stage_1,3.2.3,59.9923334382241,
1,0,1,0,1,0,1,0,6,0,6,0,,,,,,,,,,,,,,,Listen to the question and speak out your answer!,868.4174311161041,None,868.3974939107895,870.4177930355072,Eltern kümmern sich um ihre Kinder.,kümmern,869.800179553032,None,872.4002266645432,None,885.0009835481644,None,None,None,./data/Subject_00/Session_00/Exp_data/2020_Mai_31_1606/rec_QA_run_01_block_001_trial_006.wav,00,00,,A1,False,False,True,False,False,True,False,True,True,True,True,No,1,No,0,5,No,2020_Mai_31_1606,nibs_stage_1,3.2.3,59.9923334382241,
1,0,1,0,1,0,1,0,7,0,7,0,,,,,,,,,,,,,,,Listen to the question and speak out your answer!,888.418454170227,None,888.3984909772873,890.4179220199585,Ich kann das Buch nirgends finden.,finden,889.8012614965439,None,892.0679386377335,None,905.0019555807114,906.018562078476,None,None,./data/Subject_00/Session_00/Exp_data/2020_Mai_31_1606/rec_QA_run_01_block_001_trial_007.wav,00,00,,A1,False,False,True,False,False,True,False,True,True,True,True,No,1,No,0,5,No,2020_Mai_31_1606,nibs_stage_1,3.2.3,59.9923334382241,
1,0,1,0,1,0,1,0,8,0,8,0,,,,,,,,,,,,,,,Listen to the question and speak out your answer!,908.4202561378479,None,908.3993418931962,910.4188749790192,Ich muss für meine wichtige Prüfung morgen lernen.,lernen,909.8020675897599,912.7188999652863,913.1022606611252,914.1189680099487,925.0029276132584,None,None,None,./data/Subject_00/Session_00/Exp_data/2020_Mai_31_1606/rec_QA_run_01_block_001_trial_008.wav,00,00,,A1,False,False,True,False,False,True,False,True,True,True,True,No,1,No,0,5,No,2020_Mai_31_1606,nibs_stage_1,3.2.3,59.9923334382241,
1,0,1,0,1,0,1,0,9,0,9,0,,,,,,,,,,,,,,,Listen to the question and speak out your answer!,928.4198701381683,None,928.4004338502884,930.4207711219788,"Pinguine bewohnen die Antarktis, wie auch Robben und große Seelöwen.",bewohnen,929.8030374765397,None,934.8033836603165,None,944.9871485948563,None,946.403932094574,None,./data/Subject_00/Session_00/Exp_data/2020_Mai_31_1606/rec_QA_run_01_block_001_trial_009.wav,00,00,,A1,False,False,True,False,False,True,False,True,True,True,True,No,1,No,0,5,No,2020_Mai_31_1606,nibs_stage_1,3.2.3,59.9923334382241,
1,0,1,0,1,0,1,0,10,0,10,0,,,,,,,,,,,,,,,Listen to the question and speak out your answer!,948.4383859634399,None,948.4180379629136,950.4375309944153,Zuhause erzählt er seiner kleinen Schwester davon.,erzählt,949.8207035779953,953.0042879581451,953.3877764463425,954.405876159668,965.0215814828873,None,None,None,./data/Subject_00/Session_00/Exp_data/2020_Mai_31_1606/rec_QA_run_01_block_001_trial_010.wav,00,00,,A1,False,False,True,False,False,True,False,True,True,True,True,No,1,No,0,5,No,2020_Mai_31_1606,nibs_stage_1,3.2.3,59.9923334382241,
1,0,1,0,1,0,1,0,11,0,11,0,,,,,,,,,,,,,,,Listen to the question and speak out your answer!,968.4386491775513,None,968.4190498113633,970.4396409988403,Mit meinem Wagen kann ich nach Tibet reisen.,reisen,969.8218186616898,None,972.8224545240403,973.8386461734772,985.0225804567337,986.0393011569977,None,None,./data/Subject_00/Session_00/Exp_data/2020_Mai_31_1606/rec_QA_run_01_block_001_trial_011.wav,00,00,,A1,False,False,True,False,False,True,False,True,True,True,True,No,1,No,0,5,No,2020_Mai_31_1606,nibs_stage_1,3.2.3,59.9923334382241,
1,0,1,0,1,0,1,0,12,0,12,0,,,,,,,,,,,,,,,Listen to the question and speak out your answer!,988.4400351047516,None,988.4200669050217,990.4396030902863,"Im Unterricht habe ich das Wichtige notiert, was der Lehrer gesagt.",notiert,989.8228405237198,993.9064049720764,994.2896025896073,None,1005.0234766721726,1006.0402171611786,None,None,./data/Subject_00/Session_00/Exp_data/2020_Mai_31_1606/rec_QA_run_01_block_001_trial_012.wav,00,00,,A1,False,False,True,False,False,True,False,True,True,True,True,No,1,No,0,5,No,2020_Mai_31_1606,nibs_stage_1,3.2.3,59.9923334382241,
1,0,1,0,1,0,1,0,13,0,13,0,,,,,,,,,,,,,,,Listen to the question and speak out your answer!,1008.4406621456146,None,1008.4235189676285,1010.4406630992889,Zur Registrierung meines Kontos musste ich ein Formular ausfüllen.,ausfüllen,1009.823707652092,1013.8739361763,1014.2572644472123,None,1025.0244656324387,None,None,None,./data/Subject_00/Session_00/Exp_data/2020_Mai_31_1606/rec_QA_run_01_block_001_trial_013.wav,00,00,,A1,False,False,True,False,False,True,False,True,True,True,True,No,1,No,0,5,No,2020_Mai_31_1606,nibs_stage_1,3.2.3,59.9923334382241,
1,0,1,0,1,0,1,0,14,0,14,0,,,,,,,,,,,,,,,Listen to the question and speak out your answer!,1028.4420070648193,None,1028.4220789194108,1030.4414620399475,"Ich möchte einen weiteren Test durchführen, um die Ergebnisse zu prüfen.",prüfen,1029.8247056722641,None,1034.5583694696427,None,1045.025515627861,1046.0424001216888,None,None,./data/Subject_00/Session_00/Exp_data/2020_Mai_31_1606/rec_QA_run_01_block_001_trial_014.wav,00,00,,A1,False,False,True,False,False,True,False,True,True,True,True,No,1,No,0,5,No,2020_Mai_31_1606,nibs_stage_1,3.2.3,59.9923334382241,
1,0,1,0,1,0,1,0,15,0,15,0,,,,,,,,,,,,,,,Listen to the question and speak out your answer!,1048.4424290657043,None,1048.42400701046,1050.443423986435,Er hat seine Katze oft mit Fisch gefüttert.,gefüttert,1049.8257954835892,1052.3091731071472,1052.692560505867,None,1065.0264776468277,None,None,None,./data/Subject_00/Session_00/Exp_data/2020_Mai_31_1606/rec_QA_run_01_block_001_trial_015.wav,00,00,,A1,False,False,True,False,False,True,False,True,True,True,True,No,1,No,0,5,No,2020_Mai_31_1606,nibs_stage_1,3.2.3,59.9923334382241,
1,0,1,0,1,0,1,0,16,0,16,0,,,,,,,,,,,,,,,Listen to the question and speak out your answer!,1068.4434859752655,None,1068.424182009697,1070.443442106247,Man wird damit bargeldlos bezahlen können.,bezahlen,1069.8267915964127,None,1072.8273766756058,None,1085.027504515648,None,None,None,./data/Subject_00/Session_00/Exp_data/2020_Mai_31_1606/rec_QA_run_01_block_001_trial_016.wav,00,00,,A1,False,False,True,False,False,True,False,True,True,True,True,No,1,No,0,5,No,2020_Mai_31_1606,nibs_stage_1,3.2.3,59.9923334382241,
1,0,1,0,1,0,1,0,17,0,17,0,,,,,,,,,,,,,,,Listen to the question and speak out your answer!,1088.4451220035553,None,1088.4277120351792,1090.444591999054,"Doris ist leider zu spät gekommen, die Apotheke hat heute schon geschlossen.",geschlossen,1089.827743601799,1094.5113270282745,1094.8946855783463,None,1105.0284884691239,1106.0463659763336,None,None,./data/Subject_00/Session_00/Exp_data/2020_Mai_31_1606/rec_QA_run_01_block_001_trial_017.wav,00,00,,A1,False,False,True,False,False,True,False,True,True,True,True,No,1,No,0,5,No,2020_Mai_31_1606,nibs_stage_1,3.2.3,59.9923334382241,
1,0,1,0,1,0,1,0,18,0,18,0,,,,,,,,,,,,,,,Listen to the question and speak out your answer!,1108.4454851150513,None,1108.4260318994523,1110.4454381465912,"Danke für den Smoothie, den Sie mir machten.",machten,1109.828885626793,1112.4456310272217,1112.8293946504593,None,1125.0297084569931,None,None,None,./data/Subject_00/Session_00/Exp_data/2020_Mai_31_1606/rec_QA_run_01_block_001_trial_018.wav,00,00,,A1,False,False,True,False,False,True,False,True,True,True,True,No,1,No,0,5,No,2020_Mai_31_1606,nibs_stage_1,3.2.3,59.9923334382241,
1,0,1,0,1,0,1,0,19,0,19,0,,,,,,,,,,,,,,,Listen to the question and speak out your answer!,1128.4139189720154,None,1128.3937419176102,1130.4144740104675,Trotz meines Verbots hat er sein Auto vor meinem Haus geparkt.,geparkt,1129.7966614484787,1133.5132920742035,1133.8965876817704,None,1144.9971836328507,None,None,None,./data/Subject_00/Session_00/Exp_data/2020_Mai_31_1606/rec_QA_run_01_block_001_trial_019.wav,00,00,,A1,False,False,True,False,False,True,False,True,True,True,True,No,1,No,0,5,No,2020_Mai_31_1606,nibs_stage_1,3.2.3,59.9923334382241,
1,0,1,0,1,0,1,0,20,0,20,0,,,,,,,,,,,,,,,Listen to the question and speak out your answer!,1148.41472697258,None,1148.394750905037,1150.41459608078,Das Huhn legt jeden Tag ein Ei.,legt,1149.7973786115647,1151.947653055191,1152.3309696435929,None,1164.9982474565506,1166.0152111053467,None,None,./data/Subject_00/Session_00/Exp_data/2020_Mai_31_1606/rec_QA_run_01_block_001_trial_020.wav,00,00,,A1,False,False,True,False,False,True,False,True,True,True,True,No,1,No,0,5,No,2020_Mai_31_1606,nibs_stage_1,3.2.3,59.9923334382241,
1,0,1,0,1,0,1,0,21,0,21,0,,,,,,,,,,,,,,,Listen to the question and speak out your answer!,1168.4157600402832,None,1168.395829987526,1170.415500164032,"Thomas hat schon so kurze Haare, er muss sich nicht kämmen.",kämmen,1169.7986236333848,None,1173.5988336324692,None,1184.9991596460343,None,None,None,./data/Subject_00/Session_00/Exp_data/2020_Mai_31_1606/rec_QA_run_01_block_001_trial_021.wav,00,00,,A1,False,False,True,False,False,True,False,True,True,True,True,No,1,No,0,5,No,2020_Mai_31_1606,nibs_stage_1,3.2.3,59.9923334382241,
1,0,1,0,1,0,1,0,22,0,22,0,,,,,,,,,,,,,,,Listen to the question and speak out your answer!,1188.4168691635132,None,1188.3968430280686,1190.4176530838013,Sie hat die Äpfel vom Baum geholt.,geholt,1189.799450469017,1191.9495601654053,1192.3328414678574,None,1205.0002046346665,1206.0173411369324,None,None,./data/Subject_00/Session_00/Exp_data/2020_Mai_31_1606/rec_QA_run_01_block_001_trial_022.wav,00,00,,A1,False,False,True,False,False,True,False,True,True,True,True,No,1,No,0,5,No,2020_Mai_31_1606,nibs_stage_1,3.2.3,59.9923334382241,
1,0,1,0,1,0,1,0,23,0,23,0,,,,,,,,,,,,,,,Listen to the question and speak out your answer!,1208.417984008789,None,1208.3977509260178,1210.4184031486511,Wir werden jedes Paket innerhalb von fünf Arbeitstagen liefern.,liefern,1209.80056245327,1213.7175030708313,1214.100626540184,None,1225.0012226819993,None,None,None,./data/Subject_00/Session_00/Exp_data/2020_Mai_31_1606/rec_QA_run_01_block_001_trial_023.wav,00,00,,A1,False,False,True,False,False,True,False,True,True,True,True,No,1,No,0,5,No,2020_Mai_31_1606,nibs_stage_1,3.2.3,59.9923334382241,
1,0,1,0,1,0,1,0,24,0,24,0,,,,,,,,,,,,,,,Listen to the question and speak out your answer!,1228.41872215271,None,1228.3986478567124,1230.418487071991,Diesen Irrtum musste er teuer bezahlen.,bezahlen,1229.8013785600663,None,1232.5683186769486,1233.5849440097809,1245.0022216558457,None,None,None,./data/Subject_00/Session_00/Exp_data/2020_Mai_31_1606/rec_QA_run_01_block_001_trial_024.wav,00,00,,A1,False,False,True,False,False,True,False,True,True,True,True,No,1,No,0,5,No,2020_Mai_31_1606,nibs_stage_1,3.2.3,59.9923334382241,
1,0,1,0,1,0,1,0,,,,,,,,1249.4357740879059,None,,,,,,,,,,,,,,,,,,,,,,,,,,00,00,,A1,False,False,True,False,False,True,False,True,True,True,True,No,1,No,0,5,No,2020_Mai_31_1606,nibs_stage_1,3.2.3,59.9923334382241,
