run.thisRepN,run.thisTrialN,run.thisN,run.thisIndex,QA_block.thisRepN,QA_block.thisTrialN,QA_block.thisN,QA_block.thisIndex,QA_trial.thisRepN,QA_trial.thisTrialN,QA_trial.thisN,QA_trial.thisIndex,fade_in_text.text,fade_in_text.started,fade_in_text.stopped,RS_intro_title.started,RS_intro_title.stopped,RS_intro_text.text,RS_intro_text.started,RS_intro_text.stopped,RS_intro_audio.started,RS_intro_audio.stopped,RS_rec_text.text,RS_rec_text.started,RS_rec_text.stopped,RS_rec_cont.started,RS_rec_cont.stopped,Pause_cont.started,Pause_cont.stopped,QA_intro_title.started,QA_intro_title.stopped,QA_intro_text.text,QA_intro_text.started,QA_intro_text.stopped,QA_intro_audio.started,QA_intro_audio.stopped,QA_intro_cont.started,QA_intro_cont.stopped,QA_rec_text.text,QA_rec_text.started,QA_rec_text.stopped,QA_rec_beep_hint.started,QA_rec_beep_hint.stopped,QA_rec_question.sen_text,QA_rec_question.cen_text,QA_rec_question.started,QA_rec_question.stopped,QA_rec_beep_start.started,QA_rec_beep_start.stopped,QA_rec_beep_end.started,QA_rec_beep_end.stopped,QA_rec_break.started,QA_rec_break.stopped,filename,fade_out_text.text,fade_out_text.started,fade_out_text.stopped,participant,session,First language,German level,Full_screen,Instruction,Intro,Artifact,Cali_pre,Fade_in_out,Resting_State,QA,Pause,Cali_post,End,Breakpoint_Cali_pre_trial,Breakpoint_Run,Breakpoint_RS_block,Breakpoint_QA_block,Breakpoint_QA_trial,Breakpoint_Cali_post_trial,date,expName,psychopyVersion,frameRate,
0,0,0,0,0,0,0,0,0,0,0,0,Please remain seated until further instruction via the earphone.,48.42185592651367,None,264.0982699394226,None," - Task: Keep seated and relaxed with either      
             opening or closing eyes                  
 - Beep sound with decreasing pitch: Block finish 
",264.0982699394226,None,264.0789246082306,None,"Please keep relaxed and close your eyes.
",287.115975856781,467.12632608413696,468.9085750579834,None,473.99201107025146,None,492.81019592285156,532.8130049705505," - Task: Listen to the question& Speak out answer 
 - Melodious beep sound: Trial start              
 - Silent sound (blank): censored word            
 - Beep sound with increasing pitch: Rec. start   
 - Beep sound with decreasing pitch: Rec. finish  
",492.81019592285156,532.8130049705505,492.78838510513305,None,532.1949260234833,None,Listen to the question and speak out your answer!,537.0786049365997,None,537.0738667488099,539.0798768997192,Ich muss mein Versprechen halten.,halten,538.4631645202637,None,540.8132826805115,None,553.6638094902039,None,None,None,./data/Subject_00/Session_00/Exp_data/2020_Mai_31_1521/rec_QA_run_00_block_000_trial_000.wav,,,,00,00,,A1,False,False,True,False,False,True,True,True,True,True,True,No,No,No,No,No,No,2020_Mai_31_1521,nibs_stage_1,3.2.3,59.961801068197666,
0,0,0,0,0,0,0,0,1,0,1,0,,,,,,,,,,,,,,,,,,,,,,,,,,,Listen to the question and speak out your answer!,556.0967009067535,None,556.0767607212067,558.0808379650116,"Es ist nicht erlaubt für alle Autos, vor dem Notausgang zu parken.",parken,557.464411687851,None,561.9465455532074,562.9477829933167,572.664778661728,None,None,None,./data/Subject_00/Session_00/Exp_data/2020_Mai_31_1521/rec_QA_run_00_block_000_trial_001.wav,,,,00,00,,A1,False,False,True,False,False,True,True,True,True,True,True,No,No,No,No,No,No,2020_Mai_31_1521,nibs_stage_1,3.2.3,59.961801068197666,
0,0,0,0,0,0,0,0,2,0,2,0,,,,,,,,,,,,,,,,,,,,,,,,,,,Listen to the question and speak out your answer!,576.080708026886,None,576.0610966205597,578.0652439594269,"Ein rotes Signal bedeutet, dass ich warten muss.",bedeutet,577.448658657074,None,580.8808154582978,None,592.649191570282,None,594.0493109226227,None,./data/Subject_00/Session_00/Exp_data/2020_Mai_31_1521/rec_QA_run_00_block_000_trial_002.wav,,,,00,00,,A1,False,False,True,False,False,True,True,True,True,True,True,No,No,No,No,No,No,2020_Mai_31_1521,nibs_stage_1,3.2.3,59.961801068197666,
0,0,0,0,0,0,0,0,3,0,3,0,,,,,,,,,,,,,,,,,,,,,,,,,,,Listen to the question and speak out your answer!,596.0816509723663,None,596.0622195720673,598.0661718845367,Wir haben während des Urlaubs ein gemütliches Zimmer in Meeresnähe gemietet.,gemietet,597.4500414848328,601.9497239589691,602.3663615703583,None,612.6505326747895,None,614.0503289699554,None,./data/Subject_00/Session_00/Exp_data/2020_Mai_31_1521/rec_QA_run_00_block_000_trial_003.wav,,,,00,00,,A1,False,False,True,False,False,True,True,True,True,True,True,No,No,No,No,No,No,2020_Mai_31_1521,nibs_stage_1,3.2.3,59.961801068197666,
0,0,0,0,0,0,0,0,4,0,4,0,,,,,,,,,,,,,,,,,,,,,,,,,,,Listen to the question and speak out your answer!,616.0826790332794,None,616.0632376194001,618.0672330856323,"Die Fische leben in Flüssen , Seen und Meeren.",leben,617.4504606246949,None,621.1008185863495,None,632.6678826332093,None,634.0513010025024,None,./data/Subject_00/Session_00/Exp_data/2020_Mai_31_1521/rec_QA_run_00_block_000_trial_004.wav,,,,00,00,,A1,False,False,True,False,False,True,True,True,True,True,True,No,No,No,No,No,No,2020_Mai_31_1521,nibs_stage_1,3.2.3,59.961801068197666,
0,0,0,0,0,0,0,0,5,0,5,0,,,,,,,,,,,,,,,,,,,,,,,,,,,Listen to the question and speak out your answer!,636.0836369991302,None,636.0642096519471,638.0681760311127,"Eric ist ein guter Fahrer, obwohl er gerade erst seinen Führerschein gemacht hat.",gemacht,637.4514045238495,None,642.7350546836853,643.7353389263153,652.6522244930268,None,654.0523269176483,None,./data/Subject_00/Session_00/Exp_data/2020_Mai_31_1521/rec_QA_run_00_block_000_trial_005.wav,,,,00,00,,A1,False,False,True,False,False,True,True,True,True,True,True,No,No,No,No,No,No,2020_Mai_31_1521,nibs_stage_1,3.2.3,59.961801068197666,
0,0,0,0,0,0,0,0,6,0,6,0,,,,,,,,,,,,,,,,,,,,,,,,,,,Listen to the question and speak out your answer!,656.0845079421997,None,656.0652355670929,658.0678870677948,Martin geht in ein Reisebüro und lässt sich von einem Angestellten beraten.,beraten,657.4524566650391,None,662.4513995170594,663.4530160427094,672.6532976150513,None,674.0533709526062,None,./data/Subject_00/Session_00/Exp_data/2020_Mai_31_1521/rec_QA_run_00_block_000_trial_006.wav,,,,00,00,,A1,False,False,True,False,False,True,True,True,True,True,True,No,No,No,No,No,No,2020_Mai_31_1521,nibs_stage_1,3.2.3,59.961801068197666,
0,0,0,0,0,0,0,0,7,0,7,0,,,,,,,,,,,,,,,,,,,,,,,,,,,Listen to the question and speak out your answer!,676.086238861084,None,676.0662796020508,678.0702140331268,"Die Geheimzahl sollte nicht notiert werden, vor allem nicht auf der Bankomatkarte.",notiert,677.4536935806275,None,682.6870674610138,683.6871500015259,692.6875645637513,None,None,None,./data/Subject_00/Session_00/Exp_data/2020_Mai_31_1521/rec_QA_run_00_block_000_trial_007.wav,,,,00,00,,A1,False,False,True,False,False,True,True,True,True,True,True,No,No,No,No,No,No,2020_Mai_31_1521,nibs_stage_1,3.2.3,59.961801068197666,
0,0,0,0,0,0,0,0,8,0,8,0,,,,,,,,,,,,,,,,,,,,,,,,,,,Listen to the question and speak out your answer!,696.1032528877258,None,696.0836836814881,698.103434085846,"Bevor man eine Orange essen kann, muss man sie erst schneiden oder schälen.",schälen,697.4913684844971,701.8701150417328,702.2535876750946,None,712.6873225688935,None,None,None,./data/Subject_00/Session_00/Exp_data/2020_Mai_31_1521/rec_QA_run_00_block_000_trial_008.wav,,,,00,00,,A1,False,False,True,False,False,True,True,True,True,True,True,No,No,No,No,No,No,2020_Mai_31_1521,nibs_stage_1,3.2.3,59.961801068197666,
0,0,0,0,0,0,0,0,9,0,9,0,,,,,,,,,,,,,,,,,,,,,,,,,,,Listen to the question and speak out your answer!,716.1042170524597,None,716.0837125301362,718.104367017746,Hans spielt gerne mit Lego.,spielt,717.4875096797944,719.4046828746796,719.7877084732056,None,732.6883406162262,None,None,None,./data/Subject_00/Session_00/Exp_data/2020_Mai_31_1521/rec_QA_run_00_block_000_trial_009.wav,,,,00,00,,A1,False,False,True,False,False,True,True,True,True,True,True,No,No,No,No,No,No,2020_Mai_31_1521,nibs_stage_1,3.2.3,59.961801068197666,
0,0,0,0,0,0,0,0,10,0,10,0,,,,,,,,,,,,,,,,,,,,,,,,,,,Listen to the question and speak out your answer!,736.1053910255432,None,736.0846335411072,738.1053199768066,"Die Brille bekommst du beim Optiker, dann kannst du wieder perfekt sehen.",sehen,737.4885646820069,741.5387940406799,741.9220675945282,None,752.6892716407776,None,None,None,./data/Subject_00/Session_00/Exp_data/2020_Mai_31_1521/rec_QA_run_00_block_000_trial_010.wav,,,,00,00,,A1,False,False,True,False,False,True,True,True,True,True,True,No,No,No,No,No,No,2020_Mai_31_1521,nibs_stage_1,3.2.3,59.961801068197666,
0,0,0,0,0,0,0,0,11,0,11,0,,,,,,,,,,,,,,,,,,,,,,,,,,,Listen to the question and speak out your answer!,756.1068339347839,None,756.0858075141907,758.1062970161438,"Sie hat Schlafmittel genommen, damit sie gut schlafen kann.",schlafen,757.4943634986878,None,761.4567365169526,762.4733140468597,772.6737825393677,None,None,None,./data/Subject_00/Session_00/Exp_data/2020_Mai_31_1521/rec_QA_run_00_block_000_trial_011.wav,,,,00,00,,A1,False,False,True,False,False,True,True,True,True,True,True,No,No,No,No,No,No,2020_Mai_31_1521,nibs_stage_1,3.2.3,59.961801068197666,
0,0,0,0,0,0,0,0,12,0,12,0,,,,,,,,,,,,,,,,,,,,,,,,,,,Listen to the question and speak out your answer!,776.0910799503326,None,776.069966506958,778.0906879901886,"Wir brauchen Bretter, um ein Regal zu bauen.",bauen,777.4738995552063,780.2907829284668,780.6740676879883,None,792.674746465683,793.6913728713989,None,None,./data/Subject_00/Session_00/Exp_data/2020_Mai_31_1521/rec_QA_run_00_block_000_trial_012.wav,,,,00,00,,A1,False,False,True,False,False,True,True,True,True,True,True,No,No,No,No,No,No,2020_Mai_31_1521,nibs_stage_1,3.2.3,59.961801068197666,
0,0,0,0,0,0,0,0,13,0,13,0,,,,,,,,,,,,,,,,,,,,,,,,,,,Listen to the question and speak out your answer!,796.092297077179,None,796.0709466457367,798.0916829109192,"Ich komme, soweit es meine Zeit erlaubt.",erlaubt,797.4750365734101,800.0584900379181,800.4416586875916,801.45858502388,812.6757115840912,None,None,None,./data/Subject_00/Session_00/Exp_data/2020_Mai_31_1521/rec_QA_run_00_block_000_trial_013.wav,,,,00,00,,A1,False,False,True,False,False,True,True,True,True,True,True,No,No,No,No,No,No,2020_Mai_31_1521,nibs_stage_1,3.2.3,59.961801068197666,
0,0,0,0,0,0,0,0,14,0,14,0,,,,,,,,,,,,,,,,,,,,,,,,,,,Listen to the question and speak out your answer!,816.093220949173,None,816.0722527027131,818.0926690101624,Die Verkäuferin beantwortete meine Fragen und konnte mich beraten.,beraten,817.4759625911713,None,821.9761905193329,None,832.6767136573792,833.69349193573,None,None,./data/Subject_00/Session_00/Exp_data/2020_Mai_31_1521/rec_QA_run_00_block_000_trial_014.wav,,,,00,00,,A1,False,False,True,False,False,True,True,True,True,True,True,No,No,No,No,No,No,2020_Mai_31_1521,nibs_stage_1,3.2.3,59.961801068197666,
0,0,0,0,0,0,0,0,15,0,15,0,,,,,,,,,,,,,,,,,,,,,,,,,,,Listen to the question and speak out your answer!,836.0944309234619,None,836.0729496002198,838.0936970710754,Sebastian mag lieber ein schwarzes Brot mit Butter und Marmelade.,mag,837.4770776748658,841.6938030719757,842.0772656917572,843.0938799381256,852.6776585102082,853.6944448947906,None,None,./data/Subject_00/Session_00/Exp_data/2020_Mai_31_1521/rec_QA_run_00_block_000_trial_015.wav,,,,00,00,,A1,False,False,True,False,False,True,True,True,True,True,True,No,No,No,No,No,No,2020_Mai_31_1521,nibs_stage_1,3.2.3,59.961801068197666,
0,0,0,0,0,0,0,0,16,0,16,0,,,,,,,,,,,,,,,,,,,,,,,,,,,Listen to the question and speak out your answer!,856.0949828624725,None,856.074080657959,858.0947110652924,Ich musste heute Morgen richtig schnell nach der Busstation laufen.,laufen,857.4779586315155,861.3280758857727,861.7115385055542,None,872.6786386489869,None,None,None,./data/Subject_00/Session_00/Exp_data/2020_Mai_31_1521/rec_QA_run_00_block_000_trial_016.wav,,,,00,00,,A1,False,False,True,False,False,True,True,True,True,True,True,No,No,No,No,No,No,2020_Mai_31_1521,nibs_stage_1,3.2.3,59.961801068197666,
0,0,0,0,0,0,0,0,17,0,17,0,,,,,,,,,,,,,,,,,,,,,,,,,,,Listen to the question and speak out your answer!,876.0961349010468,None,876.0750605583191,878.0957999229431,Er ist durch die ganze Welt gereist.,gereist,877.4820844650269,None,879.9457776069642,None,892.6796755313874,893.6964690685272,None,None,./data/Subject_00/Session_00/Exp_data/2020_Mai_31_1521/rec_QA_run_00_block_000_trial_017.wav,,,,00,00,,A1,False,False,True,False,False,True,True,True,True,True,True,No,No,No,No,No,No,2020_Mai_31_1521,nibs_stage_1,3.2.3,59.961801068197666,
0,0,0,0,0,0,0,0,18,0,18,0,,,,,,,,,,,,,,,,,,,,,,,,,,,Listen to the question and speak out your answer!,896.0975658893585,None,896.0760626316071,898.0966999530792,Ich höre sie den Namen Sam rufen.,rufen,897.4799005508423,899.763454914093,900.1143924713135,901.1300630569458,912.6807126522065,None,None,None,./data/Subject_00/Session_00/Exp_data/2020_Mai_31_1521/rec_QA_run_00_block_000_trial_018.wav,,,,00,00,,A1,False,False,True,False,False,True,True,True,True,True,True,No,No,No,No,No,No,2020_Mai_31_1521,nibs_stage_1,3.2.3,59.961801068197666,
0,0,0,0,0,0,0,0,19,0,19,0,,,,,,,,,,,,,,,,,,,,,,,,,,,Listen to the question and speak out your answer!,916.0983099937439,None,916.0769457340241,918.0977208614349,Die Anlage arbeitet vollautomatisch.,arbeitet,917.4809805870057,None,920.4143776416779,None,932.6821934700013,None,None,None,./data/Subject_00/Session_00/Exp_data/2020_Mai_31_1521/rec_QA_run_00_block_000_trial_019.wav,,,,00,00,,A1,False,False,True,False,False,True,True,True,True,True,True,No,No,No,No,No,No,2020_Mai_31_1521,nibs_stage_1,3.2.3,59.961801068197666,
0,0,0,0,0,0,0,0,20,0,20,0,,,,,,,,,,,,,,,,,,,,,,,,,,,Listen to the question and speak out your answer!,936.0990650653839,None,936.0779675960541,938.0989918708801,An seinem Mantel fehlt ein Knopf.,fehlt,937.4867345809937,939.5986709594727,939.9820286750794,None,952.6833326339722,None,None,None,./data/Subject_00/Session_00/Exp_data/2020_Mai_31_1521/rec_QA_run_00_block_000_trial_020.wav,,,,00,00,,A1,False,False,True,False,False,True,True,True,True,True,True,No,No,No,No,No,No,2020_Mai_31_1521,nibs_stage_1,3.2.3,59.961801068197666,
0,0,0,0,0,0,0,0,21,0,21,0,,,,,,,,,,,,,,,,,,,,,,,,,,,Listen to the question and speak out your answer!,956.100427865982,None,956.0791015148163,958.099641084671,Der ganze Kurs bestand die Prüfung.,bestand,957.4829506397248,959.7664189338684,960.1497425556183,None,972.6841976165772,None,None,None,./data/Subject_00/Session_00/Exp_data/2020_Mai_31_1521/rec_QA_run_00_block_000_trial_021.wav,,,,00,00,,A1,False,False,True,False,False,True,True,True,True,True,True,No,No,No,No,No,No,2020_Mai_31_1521,nibs_stage_1,3.2.3,59.961801068197666,
0,0,0,0,0,0,0,0,22,0,22,0,,,,,,,,,,,,,,,,,,,,,,,,,,,Listen to the question and speak out your answer!,976.1008648872375,None,976.0804466724396,978.1007258892059,Der Baum hängt voller Früchte.,hängt,977.4838695049286,979.4008409976959,979.7839896202088,None,992.6850704669953,993.7014899253845,None,None,./data/Subject_00/Session_00/Exp_data/2020_Mai_31_1521/rec_QA_run_00_block_000_trial_022.wav,,,,00,00,,A1,False,False,True,False,False,True,True,True,True,True,True,No,No,No,No,No,No,2020_Mai_31_1521,nibs_stage_1,3.2.3,59.961801068197666,
0,0,0,0,0,0,0,0,23,0,23,0,,,,,,,,,,,,,,,,,,,,,,,,,,,Listen to the question and speak out your answer!,996.1015648841858,None,996.0809535503388,998.101744890213,"Wir müssen Mittel und Wege finden, um das zu ändern.",finden,997.4897636890412,1000.6688780784607,1001.0517274856568,1002.0686650276184,1012.6862744808197,None,None,None,./data/Subject_00/Session_00/Exp_data/2020_Mai_31_1521/rec_QA_run_00_block_000_trial_023.wav,,,,00,00,,A1,False,False,True,False,False,True,True,True,True,True,True,No,No,No,No,No,No,2020_Mai_31_1521,nibs_stage_1,3.2.3,59.961801068197666,
0,0,0,0,0,0,0,0,24,0,24,0,,,,,,,,,,,,,,,,,,,,,,,,,,,Listen to the question and speak out your answer!,1016.1027879714966,None,1016.081986618042,1018.102597951889,Ich habe alle meine Freunde zu meiner Geburtstags Party eingeladen.,eingeladen,1017.4860906124115,1021.6029498577118,1021.9862515449524,None,1032.687111568451,None,None,None,./data/Subject_00/Session_00/Exp_data/2020_Mai_31_1521/rec_QA_run_00_block_000_trial_024.wav,,,,00,00,,A1,False,False,True,False,False,True,True,True,True,True,True,No,No,No,No,No,No,2020_Mai_31_1521,nibs_stage_1,3.2.3,59.961801068197666,
0,0,0,0,0,0,0,0,,,,,,,,,,,,,,,,,,,,1037.1209380626678,None,,,,,,,,,,,,,,,,,,,,,,,,,,,,,00,00,,A1,False,False,True,False,False,True,True,True,True,True,True,No,No,No,No,No,No,2020_Mai_31_1521,nibs_stage_1,3.2.3,59.961801068197666,
0,0,0,0,1,0,1,0,0,0,0,0,,,,,,,,,,,,,,,,,,,,,,,,,,,Listen to the question and speak out your answer!,1054.9384438991547,None,1054.9330748558045,1056.9714670181274,Herr Müller hat einen Flug auf die Mittelmeerinsel Mallorca gebucht.,gebucht,1056.3213874816895,None,1060.7214514732361,None,1071.5220474720002,1072.538652896881,1072.93892288208,None,./data/Subject_00/Session_00/Exp_data/2020_Mai_31_1521/rec_QA_run_00_block_001_trial_000.wav,,,,00,00,,A1,False,False,True,False,False,True,True,True,True,True,True,No,No,No,No,No,No,2020_Mai_31_1521,nibs_stage_1,3.2.3,59.961801068197666,
0,0,0,0,1,0,1,0,1,0,1,0,,,,,,,,,,,,,,,,,,,,,,,,,,,Listen to the question and speak out your answer!,1074.972825050354,None,1074.9518315315247,1076.9724068641663,An der nächsten Kreuzung müssen Sie rechts abbiegen.,abbiegen,1076.3554956436158,None,1079.555825662613,1080.5724039077759,1091.5562495708466,None,None,None,./data/Subject_00/Session_00/Exp_data/2020_Mai_31_1521/rec_QA_run_00_block_001_trial_001.wav,,,,00,00,,A1,False,False,True,False,False,True,True,True,True,True,True,No,No,No,No,No,No,2020_Mai_31_1521,nibs_stage_1,3.2.3,59.961801068197666,
0,0,0,0,1,0,1,0,2,0,2,0,,,,,,,,,,,,,,,,,,,,,,,,,,,Listen to the question and speak out your answer!,1094.973886013031,None,1094.9526185512543,1096.9734089374542,"Bitte, erinnern Sie mich daran, wenn ich es vergessen sollte.",erinnern,1096.3565766334534,1099.7402820587158,1100.1233605861664,1101.140142917633,1111.5572716712952,None,None,None,./data/Subject_00/Session_00/Exp_data/2020_Mai_31_1521/rec_QA_run_00_block_001_trial_002.wav,,,,00,00,,A1,False,False,True,False,False,True,True,True,True,True,True,No,No,No,No,No,No,2020_Mai_31_1521,nibs_stage_1,3.2.3,59.961801068197666,
0,0,0,0,1,0,1,0,3,0,3,0,,,,,,,,,,,,,,,,,,,,,,,,,,,Listen to the question and speak out your answer!,1114.9417839050293,None,1114.920339536667,1116.9409239292145,Seine Großmutter kann ganz spannend erzählen.,erzählen,1116.3241614818573,1118.941146850586,1119.3244025230408,1120.341048002243,1131.52492852211,1132.541825056076,None,None,./data/Subject_00/Session_00/Exp_data/2020_Mai_31_1521/rec_QA_run_00_block_001_trial_003.wav,,,,00,00,,A1,False,False,True,False,False,True,True,True,True,True,True,No,No,No,No,No,No,2020_Mai_31_1521,nibs_stage_1,3.2.3,59.961801068197666,
0,0,0,0,1,0,1,0,4,0,4,0,,,,,,,,,,,,,,,,,,,,,,,,,,,Listen to the question and speak out your answer!,1134.9427778720856,None,1134.9213985919953,1136.9419419765472,Bist du schon mal auf einem Pony geritten? ,geritten,1136.3251876354218,None,1138.9919855117798,None,1151.5104195594788,None,1152.9262988567352,None,./data/Subject_00/Session_00/Exp_data/2020_Mai_31_1521/rec_QA_run_00_block_001_trial_004.wav,,,,00,00,,A1,False,False,True,False,False,True,True,True,True,True,True,No,No,No,No,No,No,2020_Mai_31_1521,nibs_stage_1,3.2.3,59.961801068197666,
0,0,0,0,1,0,1,0,5,0,5,0,,,,,,,,,,,,,,,,,,,,,,,,,,,Listen to the question and speak out your answer!,1154.9602658748627,None,1154.9392075061799,1156.9596939086914,"Es dauerte lange, alle nötigen Informationen zu sammeln.",sammeln,1156.3429355144501,None,1160.343126487732,None,1171.5436374664307,1172.5603470802307,None,None,./data/Subject_00/Session_00/Exp_data/2020_Mai_31_1521/rec_QA_run_00_block_001_trial_005.wav,,,,00,00,,A1,False,False,True,False,False,True,True,True,True,True,True,No,No,No,No,No,No,2020_Mai_31_1521,nibs_stage_1,3.2.3,59.961801068197666,
0,0,0,0,1,0,1,0,6,0,6,0,,,,,,,,,,,,,,,,,,,,,,,,,,,Listen to the question and speak out your answer!,1174.9611959457397,None,1174.9400765419007,1176.9606230258942,Ich gratuliere dir zum Abschluss mit höchster Auszeichnung. ,gratuliere,1176.344018650055,None,1180.2440816879273,1181.2608768939972,1191.5448526859284,None,None,None,./data/Subject_00/Session_00/Exp_data/2020_Mai_31_1521/rec_QA_run_00_block_001_trial_006.wav,,,,00,00,,A1,False,False,True,False,False,True,True,True,True,True,True,No,No,No,No,No,No,2020_Mai_31_1521,nibs_stage_1,3.2.3,59.961801068197666,
0,0,0,0,1,0,1,0,7,0,7,0,,,,,,,,,,,,,,,,,,,,,,,,,,,Listen to the question and speak out your answer!,1194.9621238708496,None,1194.9409675121308,1196.961622953415,"Der Aufzug ist repariert, jetzt funktioniert er wieder.",repariert,1196.3448466777802,None,1200.1785566329957,None,1211.5456344604493,1212.562404870987,None,None,./data/Subject_00/Session_00/Exp_data/2020_Mai_31_1521/rec_QA_run_00_block_001_trial_007.wav,,,,00,00,,A1,False,False,True,False,False,True,True,True,True,True,True,No,No,No,No,No,No,2020_Mai_31_1521,nibs_stage_1,3.2.3,59.961801068197666,
0,0,0,0,1,0,1,0,8,0,8,0,,,,,,,,,,,,,,,,,,,,,,,,,,,Listen to the question and speak out your answer!,1214.9675278663635,None,1214.9419905662537,1216.9626479148865,"Ich bin der Überzeugung, dass er es rechtzeitig schaffen kann.",schaffen,1216.3459884643555,1219.962781906128,1220.3461114883423,None,1231.5466565608979,None,None,None,./data/Subject_00/Session_00/Exp_data/2020_Mai_31_1521/rec_QA_run_00_block_001_trial_008.wav,,,,00,00,,A1,False,False,True,False,False,True,True,True,True,True,True,No,No,No,No,No,No,2020_Mai_31_1521,nibs_stage_1,3.2.3,59.961801068197666,
0,0,0,0,1,0,1,0,9,0,9,0,,,,,,,,,,,,,,,,,,,,,,,,,,,Listen to the question and speak out your answer!,1234.963546037674,None,1234.943083715439,1236.9636919498444,Paul hat zum Abendessen Kartoffelsuppe gegessen.,gegessen,1236.3468515396119,1239.3636810779572,1239.7471115112305,None,1251.54760761261,None,None,None,./data/Subject_00/Session_00/Exp_data/2020_Mai_31_1521/rec_QA_run_00_block_001_trial_009.wav,,,,00,00,,A1,False,False,True,False,False,True,True,True,True,True,True,No,No,No,No,No,No,2020_Mai_31_1521,nibs_stage_1,3.2.3,59.961801068197666,
0,0,0,0,1,0,1,0,10,0,10,0,,,,,,,,,,,,,,,,,,,,,,,,,,,Listen to the question and speak out your answer!,1254.9651720523834,None,1254.9439486980439,1256.9645869731903,"Mein Bett ist gemütlich und warm, ich möchte nicht aufstehen.",aufstehen,1256.347866487503,1259.864769935608,1260.2481564998627,None,1271.548668575287,1272.5653438568115,None,None,./data/Subject_00/Session_00/Exp_data/2020_Mai_31_1521/rec_QA_run_00_block_001_trial_010.wav,,,,00,00,,A1,False,False,True,False,False,True,True,True,True,True,True,No,No,No,No,No,No,2020_Mai_31_1521,nibs_stage_1,3.2.3,59.961801068197666,
0,0,0,0,1,0,1,0,11,0,11,0,,,,,,,,,,,,,,,,,,,,,,,,,,,Listen to the question and speak out your answer!,1274.9656369686127,None,1274.9451825141907,1276.9656388759613,"Wenn der Vulkan aktiv ist, wird Lava herausfließen.",herausfließen,1276.3502115726471,None,1280.3824746131897,None,1291.5496055603028,None,None,None,./data/Subject_00/Session_00/Exp_data/2020_Mai_31_1521/rec_QA_run_00_block_001_trial_011.wav,,,,00,00,,A1,False,False,True,False,False,True,True,True,True,True,True,No,No,No,No,No,No,2020_Mai_31_1521,nibs_stage_1,3.2.3,59.961801068197666,
0,0,0,0,1,0,1,0,12,0,12,0,,,,,,,,,,,,,,,,,,,,,,,,,,,Listen to the question and speak out your answer!,1294.967201948166,None,1294.9459757328034,1296.9667949676514,Der Autor beschrieb Sam als eine sehr nette Person.,beschrieb,1296.349908542633,None,1299.950230550766,1300.9667959213257,1311.5507206439972,None,None,None,./data/Subject_00/Session_00/Exp_data/2020_Mai_31_1521/rec_QA_run_00_block_001_trial_012.wav,,,,00,00,,A1,False,False,True,False,False,True,True,True,True,True,True,No,No,No,No,No,No,2020_Mai_31_1521,nibs_stage_1,3.2.3,59.961801068197666,
0,0,0,0,1,0,1,0,13,0,13,0,,,,,,,,,,,,,,,,,,,,,,,,,,,Listen to the question and speak out your answer!,1314.9681949615479,None,1314.9471466064454,1316.967815876007,Die Ergebnisse werden auf einer Skala von eins bis zehn angezeigt.,angezeigt,1316.352043581009,1320.5680840015411,1320.9511565685273,1321.9679939746857,1331.5517305850983,None,None,None,./data/Subject_00/Session_00/Exp_data/2020_Mai_31_1521/rec_QA_run_00_block_001_trial_013.wav,,,,00,00,,A1,False,False,True,False,False,True,True,True,True,True,True,No,No,No,No,No,No,2020_Mai_31_1521,nibs_stage_1,3.2.3,59.961801068197666,
0,0,0,0,1,0,1,0,14,0,14,0,,,,,,,,,,,,,,,,,,,,,,,,,,,Listen to the question and speak out your answer!,1334.968675851822,None,1334.947992515564,1336.9688489437103,Plastik Müll belastet die Umwelt.,belastet,1336.3518926620484,None,1339.1188165664673,None,1351.5526196479798,None,None,None,./data/Subject_00/Session_00/Exp_data/2020_Mai_31_1521/rec_QA_run_00_block_001_trial_014.wav,,,,00,00,,A1,False,False,True,False,False,True,True,True,True,True,True,No,No,No,No,No,No,2020_Mai_31_1521,nibs_stage_1,3.2.3,59.961801068197666,
0,0,0,0,1,0,1,0,15,0,15,0,,,,,,,,,,,,,,,,,,,,,,,,,,,Listen to the question and speak out your answer!,1354.970304965973,None,1354.9490475177765,1356.969745874405,Sie redete leise und unverständlich.,redete,1356.3528894901276,1359.0365419387817,1359.4196786403656,1360.4365000724792,1371.5536276817322,1372.5704519748688,None,None,./data/Subject_00/Session_00/Exp_data/2020_Mai_31_1521/rec_QA_run_00_block_001_trial_015.wav,,,,00,00,,A1,False,False,True,False,False,True,True,True,True,True,True,No,No,No,No,No,No,2020_Mai_31_1521,nibs_stage_1,3.2.3,59.961801068197666,
0,0,0,0,1,0,1,0,16,0,16,0,,,,,,,,,,,,,,,,,,,,,,,,,,,Listen to the question and speak out your answer!,1374.9707078933716,None,1374.9502825260163,1376.970643043518,"Ich habe das Formular ausgefüllt, um mich für den Kurs anzumelden.",ausgefüllt,1376.3539735794068,None,1380.8540834903717,1381.8708419799805,1391.5546206951142,None,None,None,./data/Subject_00/Session_00/Exp_data/2020_Mai_31_1521/rec_QA_run_00_block_001_trial_016.wav,,,,00,00,,A1,False,False,True,False,False,True,True,True,True,True,True,No,No,No,No,No,No,2020_Mai_31_1521,nibs_stage_1,3.2.3,59.961801068197666,
0,0,0,0,1,0,1,0,17,0,17,0,,,,,,,,,,,,,,,,,,,,,,,,,,,Listen to the question and speak out your answer!,1394.9721858501434,None,1394.9510285377503,1396.9716930389404,"Siehst du! Ich habe dir gesagt, dass es regnen würde.",gesagt,1396.3548554897309,1399.771889925003,1400.1552586078644,None,1411.5556785583497,1412.5724329948425,None,None,./data/Subject_00/Session_00/Exp_data/2020_Mai_31_1521/rec_QA_run_00_block_001_trial_017.wav,,,,00,00,,A1,False,False,True,False,False,True,True,True,True,True,True,No,No,No,No,No,No,2020_Mai_31_1521,nibs_stage_1,3.2.3,59.961801068197666,
0,0,0,0,1,0,1,0,18,0,18,0,,,,,,,,,,,,,,,,,,,,,,,,,,,Listen to the question and speak out your answer!,1414.973279953003,None,1414.9522237300873,1416.9726269245148,"Wir werden später bestellen, denn es fehlen noch einige Gäste.",fehlen,1416.3559405326844,1420.173024892807,1420.5561844825745,None,1431.5566105365754,1432.5735909938812,None,None,./data/Subject_00/Session_00/Exp_data/2020_Mai_31_1521/rec_QA_run_00_block_001_trial_018.wav,,,,00,00,,A1,False,False,True,False,False,True,True,True,True,True,True,No,No,No,No,No,No,2020_Mai_31_1521,nibs_stage_1,3.2.3,59.961801068197666,
0,0,0,0,1,0,1,0,19,0,19,0,,,,,,,,,,,,,,,,,,,,,,,,,,,Listen to the question and speak out your answer!,1434.9735548496246,None,1434.953125667572,1436.9738240242004,Singapore liegt in Südostasien.,liegt,1436.3568605899811,None,1439.1904396533967,None,1451.5576226234436,None,None,None,./data/Subject_00/Session_00/Exp_data/2020_Mai_31_1521/rec_QA_run_00_block_001_trial_019.wav,,,,00,00,,A1,False,False,True,False,False,True,True,True,True,True,True,No,No,No,No,No,No,2020_Mai_31_1521,nibs_stage_1,3.2.3,59.961801068197666,
0,0,0,0,1,0,1,0,20,0,20,0,,,,,,,,,,,,,,,,,,,,,,,,,,,Listen to the question and speak out your answer!,1454.9418568611145,None,1454.9207896709443,1456.941253900528,"Dem Patienten geht es viel besser, so dass der Arzt ihm das Rauchen erlaubte.",erlaubte,1456.324514579773,None,1461.291716527939,None,1471.5252766132355,None,None,None,./data/Subject_00/Session_00/Exp_data/2020_Mai_31_1521/rec_QA_run_00_block_001_trial_020.wav,,,,00,00,,A1,False,False,True,False,False,True,True,True,True,True,True,No,No,No,No,No,No,2020_Mai_31_1521,nibs_stage_1,3.2.3,59.961801068197666,
0,0,0,0,1,0,1,0,21,0,21,0,,,,,,,,,,,,,,,,,,,,,,,,,,,Listen to the question and speak out your answer!,1474.9429149627686,None,1474.921658706665,1476.942374944687,Ich habe mich dieses Semester für einen sehr einfachen Kurs angemeldet.,angemeldet,1476.3255385875702,None,1480.825843524933,None,1491.5263876438141,None,None,None,./data/Subject_00/Session_00/Exp_data/2020_Mai_31_1521/rec_QA_run_00_block_001_trial_021.wav,,,,00,00,,A1,False,False,True,False,False,True,True,True,True,True,True,No,No,No,No,No,No,2020_Mai_31_1521,nibs_stage_1,3.2.3,59.961801068197666,
0,0,0,0,1,0,1,0,22,0,22,0,,,,,,,,,,,,,,,,,,,,,,,,,,,Listen to the question and speak out your answer!,1494.9439940452576,None,1494.9227485179902,1496.9432849884033,Einige NGOs schützen die Rechte der Menschen.,schützen,1496.3267936229706,1499.3434028625488,1499.7267705917359,1500.7436790466309,1511.5273046016694,None,None,None,./data/Subject_00/Session_00/Exp_data/2020_Mai_31_1521/rec_QA_run_00_block_001_trial_022.wav,,,,00,00,,A1,False,False,True,False,False,True,True,True,True,True,True,No,No,No,No,No,No,2020_Mai_31_1521,nibs_stage_1,3.2.3,59.961801068197666,
0,0,0,0,1,0,1,0,23,0,23,0,,,,,,,,,,,,,,,,,,,,,,,,,,,Listen to the question and speak out your answer!,1514.9450569152832,None,1514.9237884998322,1516.9443440437317,"Wenn genug Schnee liegt, fahren sie gerne Schi.",fahren,1516.327557516098,1519.1779148578644,1519.5612496852875,None,1531.5282995224,None,None,None,./data/Subject_00/Session_00/Exp_data/2020_Mai_31_1521/rec_QA_run_00_block_001_trial_023.wav,,,,00,00,,A1,False,False,True,False,False,True,True,True,True,True,True,No,No,No,No,No,No,2020_Mai_31_1521,nibs_stage_1,3.2.3,59.961801068197666,
0,0,0,0,1,0,1,0,24,0,24,0,,,,,,,,,,,,,,,,,,,,,,,,,,,Listen to the question and speak out your answer!,1534.9453959465027,None,1534.9247316837311,1536.9453508853912,Die Kinder haben ihrer Mutter im Haushalt geholfen.,geholfen,1536.3286435127259,1539.2123799324036,1539.56203956604,1540.5787770748138,1551.5292934894562,1552.5460979938507,None,None,./data/Subject_00/Session_00/Exp_data/2020_Mai_31_1521/rec_QA_run_00_block_001_trial_024.wav,,,,00,00,,A1,False,False,True,False,False,True,True,True,True,True,True,No,No,No,No,No,No,2020_Mai_31_1521,nibs_stage_1,3.2.3,59.961801068197666,
0,0,0,0,1,0,1,0,,,,,,,,,,,,,,,,,,,,1555.9635429382324,None,,,,,,,,,,,,,,,,,,,,,,,,,,,,,00,00,,A1,False,False,True,False,False,True,True,True,True,True,True,No,No,No,No,No,No,2020_Mai_31_1521,nibs_stage_1,3.2.3,59.961801068197666,
0,0,0,0,,,,,,,,,,,,,,,,,,,,,,,,,,,,,,,,,,,,,,,,,,,,,,,,,,,Please remain seated until further instruction via the earphone.,48.42185592651367,None,00,00,,A1,False,False,True,False,False,True,True,True,True,True,True,No,No,No,No,No,No,2020_Mai_31_1521,nibs_stage_1,3.2.3,59.961801068197666,
1,0,1,0,0,0,0,0,0,0,0,0,Please remain seated until further instruction via the earphone.,1608.0155398845673,None,1833.3434529304504,None," - Task: Keep seated and relaxed with either      
             opening or closing eyes                  
 - Beep sound with decreasing pitch: Block finish 
",1833.3434529304504,None,1833.3226177215577,None,"Please keep relaxed and open your eyes.
Note: Blinking is allowed.",1856.3946390151978,2036.4365899562836,2038.2200238704681,None,2046.9876818656921,None,2064.505563020706,2104.539843082428," - Task: Listen to the question& Speak out answer 
 - Melodious beep sound: Trial start              
 - Silent sound (blank): censored word            
 - Beep sound with increasing pitch: Rec. start   
 - Beep sound with decreasing pitch: Rec. finish  
",2064.505563020706,2104.539843082428,2064.487071228027,None,2103.923129081726,None,Listen to the question and speak out your answer!,2111.224025964737,None,2111.217885637283,2113.256968975067,Der Test dauert nur fünfzehn Minuten.,dauert,2112.60687251091,None,2115.440249633789,None,2127.807615470886,None,None,None,./data/Subject_00/Session_00/Exp_data/2020_Mai_31_1521/rec_QA_run_01_block_000_trial_000.wav,,,,00,00,,A1,False,False,True,False,False,True,True,True,True,True,True,No,No,No,No,No,No,2020_Mai_31_1521,nibs_stage_1,3.2.3,59.961801068197666,
1,0,1,0,0,0,0,0,1,0,1,0,,,,,,,,,,,,,,,,,,,,,,,,,,,Listen to the question and speak out your answer!,2130.2585740089417,None,2130.237171602249,2132.257880926132,"Dieses Zelt wurde für extreme Wetterlagen, z.B. Sturm, Schneesturm, gebaut.",gebaut,2131.641137552261,None,2137.474743556976,2138.492865085602,2146.8418395042418,None,None,None,./data/Subject_00/Session_00/Exp_data/2020_Mai_31_1521/rec_QA_run_01_block_000_trial_001.wav,,,,00,00,,A1,False,False,True,False,False,True,True,True,True,True,True,No,No,No,No,No,No,2020_Mai_31_1521,nibs_stage_1,3.2.3,59.961801068197666,
1,0,1,0,0,0,0,0,2,0,2,0,,,,,,,,,,,,,,,,,,,,,,,,,,,Listen to the question and speak out your answer!,2150.2254819869995,None,2150.2048365592955,2152.2255918979645,"Ich kenne dieses Wort nicht, was bedeutet es also?",bedeutet,2151.608856630325,None,2155.242328596115,None,2166.8094624996183,None,None,None,./data/Subject_00/Session_00/Exp_data/2020_Mai_31_1521/rec_QA_run_01_block_000_trial_002.wav,,,,00,00,,A1,False,False,True,False,False,True,True,True,True,True,True,No,No,No,No,No,No,2020_Mai_31_1521,nibs_stage_1,3.2.3,59.961801068197666,
1,0,1,0,0,0,0,0,3,0,3,0,,,,,,,,,,,,,,,,,,,,,,,,,,,Listen to the question and speak out your answer!,2170.226970911026,None,2170.2057916641234,2172.2265470027924,"Wir bleiben heute zu Hause, weil wir zu müde sind.",bleiben,2171.6099195003508,2174.8932790756226,2175.276665639877,2176.2933599948883,2186.8104555130003,None,None,None,./data/Subject_00/Session_00/Exp_data/2020_Mai_31_1521/rec_QA_run_01_block_000_trial_003.wav,,,,00,00,,A1,False,False,True,False,False,True,True,True,True,True,True,No,No,No,No,No,No,2020_Mai_31_1521,nibs_stage_1,3.2.3,59.961801068197666,
1,0,1,0,0,0,0,0,4,0,4,0,,,,,,,,,,,,,,,,,,,,,,,,,,,Listen to the question and speak out your answer!,2190.2280259132385,None,2190.206907701492,2192.2276089191437,"Das Buch war witzig, ich habe stundenlang gelacht.",gelacht,2191.610714626312,2194.6276428699493,2195.010873508453,None,2206.8115446090696,None,None,None,./data/Subject_00/Session_00/Exp_data/2020_Mai_31_1521/rec_QA_run_01_block_000_trial_004.wav,,,,00,00,,A1,False,False,True,False,False,True,True,True,True,True,True,No,No,No,No,No,No,2020_Mai_31_1521,nibs_stage_1,3.2.3,59.961801068197666,
1,0,1,0,0,0,0,0,5,0,5,0,,,,,,,,,,,,,,,,,,,,,,,,,,,Listen to the question and speak out your answer!,2210.2284269332886,None,2210.2077745914457,2212.2284650802612,Dieser Supermarkt hat nur am Tage geöffnet.,geöffnet,2211.6118194580076,2214.395390033722,2214.7785965919493,2215.795415878296,2226.8125426292418,2227.829195022583,None,None,./data/Subject_00/Session_00/Exp_data/2020_Mai_31_1521/rec_QA_run_01_block_000_trial_005.wav,,,,00,00,,A1,False,False,True,False,False,True,True,True,True,True,True,No,No,No,No,No,No,2020_Mai_31_1521,nibs_stage_1,3.2.3,59.961801068197666,
1,0,1,0,0,0,0,0,6,0,6,0,,,,,,,,,,,,,,,,,,,,,,,,,,,Listen to the question and speak out your answer!,2230.230010032654,None,2230.20888967514,2232.229471921921,Er hängte seine Jacke über die Lehne des Stuhls.,hängte,2231.612819623947,2234.56298494339,2234.946242523193,None,2246.8134116649626,None,None,None,./data/Subject_00/Session_00/Exp_data/2020_Mai_31_1521/rec_QA_run_01_block_000_trial_006.wav,,,,00,00,,A1,False,False,True,False,False,True,True,True,True,True,True,No,No,No,No,No,No,2020_Mai_31_1521,nibs_stage_1,3.2.3,59.961801068197666,
1,0,1,0,0,0,0,0,7,0,7,0,,,,,,,,,,,,,,,,,,,,,,,,,,,Listen to the question and speak out your answer!,2250.2353689670563,None,2250.210026693344,2252.2305629253387,"Früh übt sich, wer ein Meister werden will.",werden,2251.6138865470884,2254.36394906044,2254.7471656322477,None,2266.814410638809,None,None,None,./data/Subject_00/Session_00/Exp_data/2020_Mai_31_1521/rec_QA_run_01_block_000_trial_007.wav,,,,00,00,,A1,False,False,True,False,False,True,True,True,True,True,True,No,No,No,No,No,No,2020_Mai_31_1521,nibs_stage_1,3.2.3,59.961801068197666,
1,0,1,0,0,0,0,0,8,0,8,0,,,,,,,,,,,,,,,,,,,,,,,,,,,Listen to the question and speak out your answer!,2270.2314488887787,None,2270.2107395648954,2272.2316489219666,Beim Spinat und Kohl wird man die Blätter essen.,essen,2271.614740562439,None,2274.815058660507,None,2286.8156425476072,None,None,None,./data/Subject_00/Session_00/Exp_data/2020_Mai_31_1521/rec_QA_run_01_block_000_trial_008.wav,,,,00,00,,A1,False,False,True,False,False,True,True,True,True,True,True,No,No,No,No,No,No,2020_Mai_31_1521,nibs_stage_1,3.2.3,59.961801068197666,
1,0,1,0,0,0,0,0,9,0,9,0,,,,,,,,,,,,,,,,,,,,,,,,,,,Listen to the question and speak out your answer!,2290.232841014862,None,2290.212006521225,2292.232367992401,Er hat den Vorgang im Tagebuch beschrieben.,beschrieben,2291.6156086444853,None,2294.4517454624174,None,2306.816560459137,None,None,None,./data/Subject_00/Session_00/Exp_data/2020_Mai_31_1521/rec_QA_run_01_block_000_trial_009.wav,,,,00,00,,A1,False,False,True,False,False,True,True,True,True,True,True,No,No,No,No,No,No,2020_Mai_31_1521,nibs_stage_1,3.2.3,59.961801068197666,
1,0,1,0,0,0,0,0,10,0,10,0,,,,,,,,,,,,,,,,,,,,,,,,,,,Listen to the question and speak out your answer!,2310.233421087265,None,2310.2129046440123,2312.2334420681,Wir leben alle auf der Erde.,leben,2311.6168775081633,None,2313.8833934783934,None,2326.8176335811613,2327.83411192894,None,None,./data/Subject_00/Session_00/Exp_data/2020_Mai_31_1521/rec_QA_run_01_block_000_trial_010.wav,,,,00,00,,A1,False,False,True,False,False,True,True,True,True,True,True,No,No,No,No,No,No,2020_Mai_31_1521,nibs_stage_1,3.2.3,59.961801068197666,
1,0,1,0,0,0,0,0,11,0,11,0,,,,,,,,,,,,,,,,,,,,,,,,,,,Listen to the question and speak out your answer!,2330.234426021576,None,2330.213705730438,2332.2345039844513,Der Verletzte braucht dringend einen Arzt zu besuchen.,besuchen,2331.617767524719,2334.7344958782196,2335.1179825782774,None,2346.81838555336,None,None,None,./data/Subject_00/Session_00/Exp_data/2020_Mai_31_1521/rec_QA_run_01_block_000_trial_011.wav,,,,00,00,,A1,False,False,True,False,False,True,True,True,True,True,True,No,No,No,No,No,No,2020_Mai_31_1521,nibs_stage_1,3.2.3,59.961801068197666,
1,0,1,0,0,0,0,0,12,0,12,0,,,,,,,,,,,,,,,,,,,,,,,,,,,Listen to the question and speak out your answer!,2350.2358388900757,None,2350.2147266387938,2352.2354140281677,"Sie sollten mehr Obst essen, Vitamin C wird Ihnen bei Erkältungen helfen.",helfen,2351.618701648712,None,2356.6521825313566,None,2366.819453668594,2367.836313009262,None,None,./data/Subject_00/Session_00/Exp_data/2020_Mai_31_1521/rec_QA_run_01_block_000_trial_012.wav,,,,00,00,,A1,False,False,True,False,False,True,True,True,True,True,True,No,No,No,No,No,No,2020_Mai_31_1521,nibs_stage_1,3.2.3,59.961801068197666,
