run.thisRepN,run.thisTrialN,run.thisN,run.thisIndex,QA_block.thisRepN,QA_block.thisTrialN,QA_block.thisN,QA_block.thisIndex,QA_trial.thisRepN,QA_trial.thisTrialN,QA_trial.thisN,QA_trial.thisIndex,QA_rec_text.text,QA_rec_text.started,QA_rec_text.stopped,QA_rec_beep_hint.started,QA_rec_beep_hint.stopped,QA_rec_question.sen_text,QA_rec_question.cen_text,QA_rec_question.started,QA_rec_question.stopped,QA_rec_beep_start.started,QA_rec_beep_start.stopped,QA_rec_beep_end.started,QA_rec_beep_end.stopped,QA_rec_break.started,QA_rec_break.stopped,filename,participant,session,First language,German level,Full_screen,Instruction,Intro,Artifact,Cali_pre,Fade_in_out,Resting_State,QA,Pause,Cali_post,End,Breakpoint_Cali_pre_trial,Breakpoint_Run,Breakpoint_RS_block,Breakpoint_QA_block,Breakpoint_QA_trial,Breakpoint_Cali_post_trial,date,expName,psychopyVersion,frameRate,
0,0,0,0,0,0,0,0,0,0,0,0,Listen to the question and speak out your answer!,22.535789012908936,None,22.53211183547974,24.536151885986328,Ich muss mein Versprechen halten.,halten,23.90252556800842,None,26.252659702301024,None,None,None,None,None,./data/Subject_00/Session_00/Exp_data/2020_Jul_01_1255/rec_QA_run_00_block_000_trial_000.wav,00,00,,A1,False,False,False,False,False,False,False,True,False,True,True,No,No,No,No,No,No,2020_Jul_01_1255,nibs_stage_1,3.2.3,60.04094054459514,
0,0,0,0,0,0,0,0,1,0,1,0,Listen to the question and speak out your answer!,36.53671598434448,None,36.52290048599243,38.53658890724182,"Es ist nicht erlaubt für alle Autos, vor dem Notausgang zu parken.",parken,37.90330972671509,None,42.37014760971069,None,53.10404267311096,54.10406684875488,54.50402784347534,None,./data/Subject_00/Session_00/Exp_data/2020_Jul_01_1255/rec_QA_run_00_block_000_trial_001.wav,00,00,,A1,False,False,False,False,False,False,False,True,False,True,True,No,No,No,No,No,No,2020_Jul_01_1255,nibs_stage_1,3.2.3,60.04094054459514,
0,0,0,0,0,0,0,0,2,0,2,0,Listen to the question and speak out your answer!,56.53767490386963,None,56.523854398727416,58.53766989707947,"Ein rotes Signal bedeutet, dass ich warten muss.",bedeutet,57.90432777404785,60.9379768371582,61.33795871734619,None,73.10511960983277,None,74.50527286529541,None,./data/Subject_00/Session_00/Exp_data/2020_Jul_01_1255/rec_QA_run_00_block_000_trial_002.wav,00,00,,A1,False,False,False,False,False,False,False,True,False,True,True,No,No,No,No,No,No,2020_Jul_01_1255,nibs_stage_1,3.2.3,60.04094054459514,
0,0,0,0,0,0,0,0,3,0,3,0,Listen to the question and speak out your answer!,76.55583190917969,None,76.54179220199586,78.55539178848267,Wir haben während des Urlaubs ein gemütliches Zimmer in Meeresnähe gemietet.,gemietet,77.9387077331543,82.43903183937073,82.85587873458863,None,93.1395157814026,None,None,None,./data/Subject_00/Session_00/Exp_data/2020_Jul_01_1255/rec_QA_run_00_block_000_trial_003.wav,00,00,,A1,False,False,False,False,False,False,False,True,False,True,True,No,No,No,No,No,No,2020_Jul_01_1255,nibs_stage_1,3.2.3,60.04094054459514,
0,0,0,0,0,0,0,0,4,0,4,0,Listen to the question and speak out your answer!,96.57317185401917,None,96.55942697525025,98.57308983802795,"Die Fische leben in Flüssen , Seen und Meeren.",leben,97.95640864372254,None,101.59006872177125,None,113.14059772491456,None,None,None,./data/Subject_00/Session_00/Exp_data/2020_Jul_01_1255/rec_QA_run_00_block_000_trial_004.wav,00,00,,A1,False,False,False,False,False,False,False,True,False,True,True,No,No,No,No,No,No,2020_Jul_01_1255,nibs_stage_1,3.2.3,60.04094054459514,
0,0,0,0,0,0,0,0,5,0,5,0,Listen to the question and speak out your answer!,116.55737090110779,None,116.54383115768434,118.55747985839844,"Eric ist ein guter Fahrer, obwohl er gerade erst seinen Führerschein gemacht hat.",gemacht,117.94088377952576,None,123.2244845867157,124.22446489334106,133.14198961257935,None,None,None,./data/Subject_00/Session_00/Exp_data/2020_Jul_01_1255/rec_QA_run_00_block_000_trial_005.wav,00,00,,A1,False,False,False,False,False,False,False,True,False,True,True,No,No,No,No,No,No,2020_Jul_01_1255,nibs_stage_1,3.2.3,60.04094054459514,
0,0,0,0,0,0,0,0,6,0,6,0,Listen to the question and speak out your answer!,136.57517790794373,None,136.56152195930483,138.57520079612732,Martin geht in ein Reisebüro und lässt sich von einem Angestellten beraten.,beraten,137.94193472862244,None,142.94212975502015,None,153.1427487373352,None,None,None,./data/Subject_00/Session_00/Exp_data/2020_Jul_01_1255/rec_QA_run_00_block_000_trial_006.wav,00,00,,A1,False,False,False,False,False,False,False,True,False,True,True,No,No,No,No,No,No,2020_Jul_01_1255,nibs_stage_1,3.2.3,60.04094054459514,
0,0,0,0,0,0,0,0,7,0,7,0,Listen to the question and speak out your answer!,156.54330396652222,None,156.54596214294435,158.55957579612732,"Die Geheimzahl sollte nicht notiert werden, vor allem nicht auf der Bankomatkarte.",notiert,157.92624368667603,None,163.1598385810852,164.15993189811707,173.1271137237549,None,None,None,./data/Subject_00/Session_00/Exp_data/2020_Jul_01_1255/rec_QA_run_00_block_000_trial_007.wav,00,00,,A1,False,False,False,False,False,False,False,True,False,True,True,No,No,No,No,No,No,2020_Jul_01_1255,nibs_stage_1,3.2.3,60.04094054459514,
0,0,0,0,0,0,0,0,8,0,8,0,Listen to the question and speak out your answer!,176.5605227947235,None,176.54695920944215,178.56053185462952,"Bevor man eine Orange essen kann, muss man sie erst schneiden oder schälen.",schälen,177.94393458366395,182.2941439151764,182.71084966659546,None,193.14466466903687,None,None,None,./data/Subject_00/Session_00/Exp_data/2020_Jul_01_1255/rec_QA_run_00_block_000_trial_008.wav,00,00,,A1,False,False,False,False,False,False,False,True,False,True,True,No,No,No,No,No,No,2020_Jul_01_1255,nibs_stage_1,3.2.3,60.04094054459514,
0,0,0,0,0,0,0,0,9,0,9,0,Listen to the question and speak out your answer!,196.56160187721252,None,196.5479591369629,198.5616738796234,Hans spielt gerne mit Lego.,spielt,197.94513263702393,199.84505081176758,200.2618335723877,None,213.14582171440125,None,None,None,./data/Subject_00/Session_00/Exp_data/2020_Jul_01_1255/rec_QA_run_00_block_000_trial_009.wav,00,00,,A1,False,False,False,False,False,False,False,True,False,True,True,No,No,No,No,No,No,2020_Jul_01_1255,nibs_stage_1,3.2.3,60.04094054459514,
0,0,0,0,0,0,0,0,10,0,10,0,Listen to the question and speak out your answer!,216.56260681152344,None,216.5490529060364,218.56271982192993,"Die Brille bekommst du beim Optiker, dann kannst du wieder perfekt sehen.",sehen,217.94604363441468,None,222.36292471885682,None,233.14685072898865,234.146812915802,None,None,./data/Subject_00/Session_00/Exp_data/2020_Jul_01_1255/rec_QA_run_00_block_000_trial_010.wav,00,00,,A1,False,False,False,False,False,False,False,True,False,True,True,No,No,No,No,No,No,2020_Jul_01_1255,nibs_stage_1,3.2.3,60.04094054459514,
0,0,0,0,0,0,0,0,11,0,11,0,Listen to the question and speak out your answer!,236.56414198875427,None,236.55015392303469,238.5637719631195,"Sie hat Schlafmittel genommen, damit sie gut schlafen kann.",schlafen,237.94706764221192,None,241.93065776824952,None,253.14788069725037,None,None,None,./data/Subject_00/Session_00/Exp_data/2020_Jul_01_1255/rec_QA_run_00_block_000_trial_011.wav,00,00,,A1,False,False,False,False,False,False,False,True,False,True,True,No,No,No,No,No,No,2020_Jul_01_1255,nibs_stage_1,3.2.3,60.04094054459514,
0,0,0,0,0,0,0,0,12,0,12,0,Listen to the question and speak out your answer!,256.54891180992126,None,256.5344391345978,258.5484209060669,"Wir brauchen Bretter, um ein Regal zu bauen.",bauen,257.9149757862091,None,261.11532869338987,None,273.11597671508787,None,None,None,./data/Subject_00/Session_00/Exp_data/2020_Jul_01_1255/rec_QA_run_00_block_000_trial_012.wav,00,00,,A1,False,False,False,False,False,False,False,True,False,True,True,No,No,No,No,No,No,2020_Jul_01_1255,nibs_stage_1,3.2.3,60.04094054459514,
0,0,0,0,0,0,0,0,13,0,13,0,Listen to the question and speak out your answer!,276.5493929386139,None,276.5356703281402,278.54945397377014,"Ich komme, soweit es meine Zeit erlaubt.",erlaubt,277.9161106586456,280.4830799102783,280.89958372116087,None,293.1169017791748,None,None,None,./data/Subject_00/Session_00/Exp_data/2020_Jul_01_1255/rec_QA_run_00_block_000_trial_013.wav,00,00,,A1,False,False,False,False,False,False,False,True,False,True,True,No,No,No,No,No,No,2020_Jul_01_1255,nibs_stage_1,3.2.3,60.04094054459514,
0,0,0,0,0,0,0,0,14,0,14,0,Listen to the question and speak out your answer!,296.5337288379669,None,296.5201155185699,298.5340619087219,Die Verkäuferin beantwortete meine Fragen und konnte mich beraten.,beraten,297.9006465911865,301.9840829372406,302.4009636878967,None,313.10127463340757,314.1012969017029,314.50135588645935,None,./data/Subject_00/Session_00/Exp_data/2020_Jul_01_1255/rec_QA_run_00_block_000_trial_014.wav,00,00,,A1,False,False,False,False,False,False,False,True,False,True,True,No,No,No,No,No,No,2020_Jul_01_1255,nibs_stage_1,3.2.3,60.04094054459514,
0,0,0,0,0,0,0,0,15,0,15,0,Listen to the question and speak out your answer!,316.55177187919617,None,316.55456800460814,318.5682427883148,Sebastian mag lieber ein schwarzes Brot mit Butter und Marmelade.,mag,317.9348627567291,None,322.53513875007627,None,333.1354125976562,334.1354579925537,None,None,./data/Subject_00/Session_00/Exp_data/2020_Jul_01_1255/rec_QA_run_00_block_000_trial_015.wav,00,00,,A1,False,False,False,False,False,False,False,True,False,True,True,No,No,No,No,No,No,2020_Jul_01_1255,nibs_stage_1,3.2.3,60.04094054459514,
0,0,0,0,0,0,0,0,16,0,16,0,Listen to the question and speak out your answer!,336.55227398872375,None,336.5386741638183,338.5525279045105,Ich musste heute Morgen richtig schnell nach der Busstation laufen.,laufen,337.93567671775816,341.7694499492645,342.18591656684873,None,353.1364716529846,None,None,None,./data/Subject_00/Session_00/Exp_data/2020_Jul_01_1255/rec_QA_run_00_block_000_trial_016.wav,00,00,,A1,False,False,False,False,False,False,False,True,False,True,True,No,No,No,No,No,No,2020_Jul_01_1255,nibs_stage_1,3.2.3,60.04094054459514,
0,0,0,0,0,0,0,0,17,0,17,0,Listen to the question and speak out your answer!,356.55389881134033,None,356.53967432975764,358.5533859729767,Er ist durch die ganze Welt gereist.,gereist,357.93670477867124,359.9868049621582,360.40350260734556,None,373.13749661445615,None,None,None,./data/Subject_00/Session_00/Exp_data/2020_Jul_01_1255/rec_QA_run_00_block_000_trial_017.wav,00,00,,A1,False,False,False,False,False,False,False,True,False,True,True,No,No,No,No,No,No,2020_Jul_01_1255,nibs_stage_1,3.2.3,60.04094054459514,
0,0,0,0,0,0,0,0,18,0,18,0,Listen to the question and speak out your answer!,376.53818798065186,None,376.54071335792537,378.55450892448425,Ich höre sie den Namen Sam rufen.,rufen,377.9210976600647,None,380.5712276935577,None,393.1218976020813,None,None,None,./data/Subject_00/Session_00/Exp_data/2020_Jul_01_1255/rec_QA_run_00_block_000_trial_018.wav,00,00,,A1,False,False,False,False,False,False,False,True,False,True,True,No,No,No,No,No,No,2020_Jul_01_1255,nibs_stage_1,3.2.3,60.04094054459514,
0,0,0,0,0,0,0,0,19,0,19,0,Listen to the question and speak out your answer!,396.5725839138031,None,396.54170017242427,398.5553858280182,Die Anlage arbeitet vollautomatisch.,arbeitet,397.93879570960996,None,400.8888665676117,None,413.13956179618833,None,None,None,./data/Subject_00/Session_00/Exp_data/2020_Jul_01_1255/rec_QA_run_00_block_000_trial_019.wav,00,00,,A1,False,False,False,False,False,False,False,True,False,True,True,No,No,No,No,No,No,2020_Jul_01_1255,nibs_stage_1,3.2.3,60.04094054459514,
0,0,0,0,0,0,0,0,20,0,20,0,Listen to the question and speak out your answer!,416.5734429359436,None,416.5596179485321,418.5733549594879,An seinem Mantel fehlt ein Knopf.,fehlt,417.93984665870664,None,420.44010462760923,None,433.14078464508054,434.1406788825989,None,None,./data/Subject_00/Session_00/Exp_data/2020_Jul_01_1255/rec_QA_run_00_block_000_trial_020.wav,00,00,,A1,False,False,False,False,False,False,False,True,False,True,True,No,No,No,No,No,No,2020_Jul_01_1255,nibs_stage_1,3.2.3,60.04094054459514,
0,0,0,0,0,0,0,0,21,0,21,0,Listen to the question and speak out your answer!,436.57406783103943,None,436.5605670928955,438.5742449760437,Der ganze Kurs bestand die Prüfung.,bestand,437.9408957004547,440.1910378932953,440.59094562530515,None,453.141753578186,None,None,None,./data/Subject_00/Session_00/Exp_data/2020_Jul_01_1255/rec_QA_run_00_block_000_trial_021.wav,00,00,,A1,False,False,False,False,False,False,False,True,False,True,True,No,No,No,No,No,No,2020_Jul_01_1255,nibs_stage_1,3.2.3,60.04094054459514,
0,0,0,0,0,0,0,0,22,0,22,0,Listen to the question and speak out your answer!,456.54188299179077,None,456.5283745765686,458.54209995269775,Der Baum hängt voller Früchte.,hängt,457.9086417198181,459.80868887901306,460.2253147602081,461.24247193336487,473.10939874649046,None,474.5094928741455,None,./data/Subject_00/Session_00/Exp_data/2020_Jul_01_1255/rec_QA_run_00_block_000_trial_022.wav,00,00,,A1,False,False,False,False,False,False,False,True,False,True,True,No,No,No,No,No,No,2020_Jul_01_1255,nibs_stage_1,3.2.3,60.04094054459514,
0,0,0,0,0,0,0,0,23,0,23,0,Listen to the question and speak out your answer!,476.576514005661,None,476.5460122108459,478.5597348213196,"Wir müssen Mittel und Wege finden, um das zu ändern.",finden,477.94315066337583,481.1432228088379,481.5266117095947,None,493.1605617046356,494.1772048473358,None,None,./data/Subject_00/Session_00/Exp_data/2020_Jul_01_1255/rec_QA_run_00_block_000_trial_023.wav,00,00,,A1,False,False,False,False,False,False,False,True,False,True,True,No,No,No,No,No,No,2020_Jul_01_1255,nibs_stage_1,3.2.3,60.04094054459514,
0,0,0,0,0,0,0,0,24,0,24,0,Listen to the question and speak out your answer!,496.5774300098419,None,496.5638150691986,498.6107289791107,Ich habe alle meine Freunde zu meiner Geburtstags Party eingeladen.,eingeladen,497.9608067512512,502.0776569843292,502.4610415935516,503.47775983810425,513.161611700058,None,None,None,./data/Subject_00/Session_00/Exp_data/2020_Jul_01_1255/rec_QA_run_00_block_000_trial_024.wav,00,00,,A1,False,False,False,False,False,False,False,True,False,True,True,No,No,No,No,No,No,2020_Jul_01_1255,nibs_stage_1,3.2.3,60.04094054459514,
0,0,0,0,0,0,0,0,,,,,,,,,,,,,,,,,,,,,00,00,,A1,False,False,False,False,False,False,False,True,False,True,True,No,No,No,No,No,No,2020_Jul_01_1255,nibs_stage_1,3.2.3,60.04094054459514,
0,0,0,0,1,0,1,0,0,0,0,0,Listen to the question and speak out your answer!,518.578822851181,None,518.5679296970367,520.6118769645691,Herr Müller hat einen Flug auf die Mittelmeerinsel Mallorca gebucht.,gebucht,519.9618567466736,None,524.3288575649261,None,None,None,None,None,./data/Subject_00/Session_00/Exp_data/2020_Jul_01_1255/rec_QA_run_00_block_001_trial_000.wav,00,00,,A1,False,False,False,False,False,False,False,True,False,True,True,No,No,No,No,No,No,2020_Jul_01_1255,nibs_stage_1,3.2.3,60.04094054459514,
0,0,0,0,1,0,1,0,1,0,1,0,Listen to the question and speak out your answer!,536.5800528526306,None,536.5490351200103,538.5795068740845,An der nächsten Kreuzung müssen Sie rechts abbiegen.,abbiegen,537.9629036426544,None,541.1629656791687,None,553.1636377811432,None,None,None,./data/Subject_00/Session_00/Exp_data/2020_Jul_01_1255/rec_QA_run_00_block_001_trial_001.wav,00,00,,A1,False,False,False,False,False,False,False,True,False,True,True,No,No,No,No,No,No,2020_Jul_01_1255,nibs_stage_1,3.2.3,60.04094054459514,
0,0,0,0,1,0,1,0,2,0,2,0,Listen to the question and speak out your answer!,556.5646169185638,None,556.5501442432403,558.5974698066711,"Bitte, erinnern Sie mich daran, wenn ich es vergessen sollte.",erinnern,557.9475347042084,None,561.7142886161804,None,573.1479996681213,None,None,None,./data/Subject_00/Session_00/Exp_data/2020_Jul_01_1255/rec_QA_run_00_block_001_trial_002.wav,00,00,,A1,False,False,False,False,False,False,False,True,False,True,True,No,No,No,No,No,No,2020_Jul_01_1255,nibs_stage_1,3.2.3,60.04094054459514,
0,0,0,0,1,0,1,0,3,0,3,0,Listen to the question and speak out your answer!,576.5652458667755,None,576.5345912456512,578.5649309158325,Seine Großmutter kann ganz spannend erzählen.,erzählen,577.9482406616211,580.5654737949371,580.9486466884613,None,593.1492756843567,594.1660029888153,None,None,./data/Subject_00/Session_00/Exp_data/2020_Jul_01_1255/rec_QA_run_00_block_001_trial_003.wav,00,00,,A1,False,False,False,False,False,False,False,True,False,True,True,No,No,No,No,No,No,2020_Jul_01_1255,nibs_stage_1,3.2.3,60.04094054459514,
0,0,0,0,1,0,1,0,4,0,4,0,Listen to the question and speak out your answer!,596.5661678314209,None,596.5358462810516,598.5662000179291,Bist du schon mal auf einem Pony geritten? ,geritten,597.9499217510223,None,600.6497146129608,None,613.1334017753601,None,None,None,./data/Subject_00/Session_00/Exp_data/2020_Jul_01_1255/rec_QA_run_00_block_001_trial_004.wav,00,00,,A1,False,False,False,False,False,False,False,True,False,True,True,No,No,No,No,No,No,2020_Jul_01_1255,nibs_stage_1,3.2.3,60.04094054459514,
0,0,0,0,1,0,1,0,5,0,5,0,Listen to the question and speak out your answer!,616.5676648616791,None,616.5534751892089,618.600588798523,"Es dauerte lange, alle nötigen Informationen zu sammeln.",sammeln,617.9505547523498,621.5676209926605,621.9505475997925,None,633.1511217594147,None,None,None,./data/Subject_00/Session_00/Exp_data/2020_Jul_01_1255/rec_QA_run_00_block_001_trial_005.wav,00,00,,A1,False,False,False,False,False,False,False,True,False,True,True,No,No,No,No,No,No,2020_Jul_01_1255,nibs_stage_1,3.2.3,60.04094054459514,
0,0,0,0,1,0,1,0,6,0,6,0,Listen to the question and speak out your answer!,636.5682787895203,None,636.5377612590789,638.5681209564209,Ich gratuliere dir zum Abschluss mit höchster Auszeichnung. ,gratuliere,637.951611661911,None,641.8515907764435,None,653.152269744873,None,None,None,./data/Subject_00/Session_00/Exp_data/2020_Jul_01_1255/rec_QA_run_00_block_001_trial_006.wav,00,00,,A1,False,False,False,False,False,False,False,True,False,True,True,No,No,No,No,No,No,2020_Jul_01_1255,nibs_stage_1,3.2.3,60.04094054459514,
0,0,0,0,1,0,1,0,7,0,7,0,Listen to the question and speak out your answer!,656.5523397922516,None,656.5221313476562,658.5526440143585,"Der Aufzug ist repariert, jetzt funktioniert er wieder.",repariert,657.9024256706238,None,661.7693647384643,None,673.1033317089081,674.1199338436127,674.5199489593506,None,./data/Subject_00/Session_00/Exp_data/2020_Jul_01_1255/rec_QA_run_00_block_001_trial_007.wav,00,00,,A1,False,False,False,False,False,False,False,True,False,True,True,No,No,No,No,No,No,2020_Jul_01_1255,nibs_stage_1,3.2.3,60.04094054459514,
0,0,0,0,1,0,1,0,8,0,8,0,Listen to the question and speak out your answer!,676.570592880249,None,676.5397755146026,678.5702128410339,"Ich bin der Überzeugung, dass er es rechtzeitig schaffen kann.",schaffen,677.9202295780182,681.5371317863464,681.9204336643219,None,693.1209546566009,None,None,None,./data/Subject_00/Session_00/Exp_data/2020_Jul_01_1255/rec_QA_run_00_block_001_trial_008.wav,00,00,,A1,False,False,False,False,False,False,False,True,False,True,True,No,No,No,No,No,No,2020_Jul_01_1255,nibs_stage_1,3.2.3,60.04094054459514,
0,0,0,0,1,0,1,0,9,0,9,0,Listen to the question and speak out your answer!,696.5713539123535,None,696.5575971126556,698.6045289039612,Paul hat zum Abendessen Kartoffelsuppe gegessen.,gegessen,697.9546197891235,700.9714028835297,701.354707622528,702.3715538978577,713.1554075717926,None,None,None,./data/Subject_00/Session_00/Exp_data/2020_Jul_01_1255/rec_QA_run_00_block_001_trial_009.wav,00,00,,A1,False,False,False,False,False,False,False,True,False,True,True,No,No,No,No,No,No,2020_Jul_01_1255,nibs_stage_1,3.2.3,60.04094054459514,
0,0,0,0,1,0,1,0,10,0,10,0,Listen to the question and speak out your answer!,716.573059797287,None,716.5420122623443,718.5722448825836,"Mein Bett ist gemütlich und warm, ich möchte nicht aufstehen.",aufstehen,717.9556497573852,721.4724628925323,721.8557735919952,None,733.156377696991,None,None,None,./data/Subject_00/Session_00/Exp_data/2020_Jul_01_1255/rec_QA_run_00_block_001_trial_010.wav,00,00,,A1,False,False,False,False,False,False,False,True,False,True,True,No,No,No,No,No,No,2020_Jul_01_1255,nibs_stage_1,3.2.3,60.04094054459514,
0,0,0,0,1,0,1,0,11,0,11,0,Listen to the question and speak out your answer!,736.5742268562317,None,736.5430102825164,738.5733659267426,"Wenn der Vulkan aktiv ist, wird Lava herausfließen.",herausfließen,737.9567977428436,None,741.9901646614074,None,753.1574236392975,None,None,None,./data/Subject_00/Session_00/Exp_data/2020_Jul_01_1255/rec_QA_run_00_block_001_trial_011.wav,00,00,,A1,False,False,False,False,False,False,False,True,False,True,True,No,No,No,No,No,No,2020_Jul_01_1255,nibs_stage_1,3.2.3,60.04094054459514,
0,0,0,0,1,0,1,0,12,0,12,0,Listen to the question and speak out your answer!,756.575098991394,None,756.5439272403717,758.5743358135223,Der Autor beschrieb Sam als eine sehr nette Person.,beschrieb,757.9576317310333,761.1743879318237,761.5577587127685,None,773.1584776878357,None,None,None,./data/Subject_00/Session_00/Exp_data/2020_Jul_01_1255/rec_QA_run_00_block_001_trial_012.wav,00,00,,A1,False,False,False,False,False,False,False,True,False,True,True,No,No,No,No,No,No,2020_Jul_01_1255,nibs_stage_1,3.2.3,60.04094054459514,
0,0,0,0,1,0,1,0,13,0,13,0,Listen to the question and speak out your answer!,776.5755548477173,None,776.5450292110443,778.5753858089447,Die Ergebnisse werden auf einer Skala von eins bis zehn angezeigt.,angezeigt,777.958623790741,782.175745010376,782.5588726043701,None,793.1595136165619,794.1761817932129,None,None,./data/Subject_00/Session_00/Exp_data/2020_Jul_01_1255/rec_QA_run_00_block_001_trial_013.wav,00,00,,A1,False,False,False,False,False,False,False,True,False,True,True,No,No,No,No,No,No,2020_Jul_01_1255,nibs_stage_1,3.2.3,60.04094054459514,
0,0,0,0,1,0,1,0,14,0,14,0,Listen to the question and speak out your answer!,796.5772159099579,None,796.5460453510284,798.5764880180359,Plastik Müll belastet die Umwelt.,belastet,797.9597307682037,None,800.7265557289123,None,813.160550737381,None,None,None,./data/Subject_00/Session_00/Exp_data/2020_Jul_01_1255/rec_QA_run_00_block_001_trial_014.wav,00,00,,A1,False,False,False,False,False,False,False,True,False,True,True,No,No,No,No,No,No,2020_Jul_01_1255,nibs_stage_1,3.2.3,60.04094054459514,
0,0,0,0,1,0,1,0,15,0,15,0,Listen to the question and speak out your answer!,816.5776319503784,None,816.5471342086792,818.5774669647217,Sie redete leise und unverständlich.,redete,817.9607826709747,None,820.9942916870117,None,833.161667728424,None,None,None,./data/Subject_00/Session_00/Exp_data/2020_Jul_01_1255/rec_QA_run_00_block_001_trial_015.wav,00,00,,A1,False,False,False,False,False,False,False,True,False,True,True,No,No,No,No,No,No,2020_Jul_01_1255,nibs_stage_1,3.2.3,60.04094054459514,
0,0,0,0,1,0,1,0,16,0,16,0,Listen to the question and speak out your answer!,836.5791850090027,None,836.5648579120635,838.6118597984314,"Ich habe das Formular ausgefüllt, um mich für den Kurs anzumelden.",ausgefüllt,837.9618996620178,None,842.4288026332855,None,853.1628006935119,None,None,None,./data/Subject_00/Session_00/Exp_data/2020_Jul_01_1255/rec_QA_run_00_block_001_trial_016.wav,00,00,,A1,False,False,False,False,False,False,False,True,False,True,True,No,No,No,No,No,No,2020_Jul_01_1255,nibs_stage_1,3.2.3,60.04094054459514,
0,0,0,0,1,0,1,0,17,0,17,0,Listen to the question and speak out your answer!,856.5802118778229,None,856.5494132518768,858.5796408653259,"Siehst du! Ich habe dir gesagt, dass es regnen würde.",gesagt,857.963051700592,861.3799328804016,861.7631427288055,862.7798299789429,873.1303547859192,None,None,None,./data/Subject_00/Session_00/Exp_data/2020_Jul_01_1255/rec_QA_run_00_block_001_trial_017.wav,00,00,,A1,False,False,False,False,False,False,False,True,False,True,True,No,No,No,No,No,No,2020_Jul_01_1255,nibs_stage_1,3.2.3,60.04094054459514,
0,0,0,0,1,0,1,0,18,0,18,0,Listen to the question and speak out your answer!,876.5973289012909,None,876.5668661117553,878.5973069667816,"Wir werden später bestellen, denn es fehlen noch einige Gäste.",fehlen,877.9475018024444,None,882.147742652893,883.1644389629364,893.1486336231231,None,None,None,./data/Subject_00/Session_00/Exp_data/2020_Jul_01_1255/rec_QA_run_00_block_001_trial_018.wav,00,00,,A1,False,False,False,False,False,False,False,True,False,True,True,No,No,No,No,No,No,2020_Jul_01_1255,nibs_stage_1,3.2.3,60.04094054459514,
0,0,0,0,1,0,1,0,19,0,19,0,Listen to the question and speak out your answer!,896.5653018951416,None,896.5348692417144,898.5652289390564,Singapore liegt in Südostasien.,liegt,897.9486307144165,None,900.7820977210998,901.798660993576,913.1491335868835,None,None,None,./data/Subject_00/Session_00/Exp_data/2020_Jul_01_1255/rec_QA_run_00_block_001_trial_019.wav,00,00,,A1,False,False,False,False,False,False,False,True,False,True,True,No,No,No,No,No,No,2020_Jul_01_1255,nibs_stage_1,3.2.3,60.04094054459514,
0,0,0,0,1,0,1,0,20,0,20,0,Listen to the question and speak out your answer!,916.5831768512726,None,916.552371931076,918.5828559398651,"Dem Patienten geht es viel besser, so dass der Arzt ihm das Rauchen erlaubte.",erlaubte,917.9327217578888,922.5165848731995,922.8997096061706,None,933.1336766719818,None,None,None,./data/Subject_00/Session_00/Exp_data/2020_Jul_01_1255/rec_QA_run_00_block_001_trial_020.wav,00,00,,A1,False,False,False,False,False,False,False,True,False,True,True,No,No,No,No,No,No,2020_Jul_01_1255,nibs_stage_1,3.2.3,60.04094054459514,
0,0,0,0,1,0,1,0,21,0,21,0,Listen to the question and speak out your answer!,936.5845057964325,None,936.5534003257751,938.5840449333191,Ich habe mich dieses Semester für einen sehr einfachen Kurs angemeldet.,angemeldet,937.9670886039734,None,942.4673105716705,None,953.1679696083069,None,None,None,./data/Subject_00/Session_00/Exp_data/2020_Jul_01_1255/rec_QA_run_00_block_001_trial_021.wav,00,00,,A1,False,False,False,False,False,False,False,True,False,True,True,No,No,No,No,No,No,2020_Jul_01_1255,nibs_stage_1,3.2.3,60.04094054459514,
0,0,0,0,1,0,1,0,22,0,22,0,Listen to the question and speak out your answer!,956.6522018909454,None,956.6213323116302,958.6518368721008,Einige NGOs schützen die Rechte der Menschen.,schützen,958.0347947120666,961.0519008636475,961.4349876880646,962.4520289897919,973.2356997966766,None,None,None,./data/Subject_00/Session_00/Exp_data/2020_Jul_01_1255/rec_QA_run_00_block_001_trial_022.wav,00,00,,A1,False,False,False,False,False,False,False,True,False,True,True,No,No,No,No,No,No,2020_Jul_01_1255,nibs_stage_1,3.2.3,60.04094054459514,
0,0,0,0,1,0,1,0,23,0,23,0,Listen to the question and speak out your answer!,976.5699758529663,None,976.5555902004241,978.6027548313141,"Wenn genug Schnee liegt, fahren sie gerne Schi.",fahren,977.9525996685028,None,981.186016702652,None,993.1533097267151,None,None,None,./data/Subject_00/Session_00/Exp_data/2020_Jul_01_1255/rec_QA_run_00_block_001_trial_023.wav,00,00,,A1,False,False,False,False,False,False,False,True,False,True,True,No,No,No,No,No,No,2020_Jul_01_1255,nibs_stage_1,3.2.3,60.04094054459514,
0,0,0,0,1,0,1,0,24,0,24,0,Listen to the question and speak out your answer!,996.5703928470612,None,996.5398881912231,998.5703349113464,Die Kinder haben ihrer Mutter im Haushalt geholfen.,geholfen,997.9535736083984,1000.8372519016266,1001.1871656417846,None,1013.1543697357178,None,None,None,./data/Subject_00/Session_00/Exp_data/2020_Jul_01_1255/rec_QA_run_00_block_001_trial_024.wav,00,00,,A1,False,False,False,False,False,False,False,True,False,True,True,No,No,No,No,No,No,2020_Jul_01_1255,nibs_stage_1,3.2.3,60.04094054459514,
0,0,0,0,1,0,1,0,,,,,,,,,,,,,,,,,,,,,00,00,,A1,False,False,False,False,False,False,False,True,False,True,True,No,No,No,No,No,No,2020_Jul_01_1255,nibs_stage_1,3.2.3,60.04094054459514,
0,0,0,0,,,,,,,,,,,,,,,,,,,,,,,,,00,00,,A1,False,False,False,False,False,False,False,True,False,True,True,No,No,No,No,No,No,2020_Jul_01_1255,nibs_stage_1,3.2.3,60.04094054459514,
1,0,1,0,0,0,0,0,0,0,0,0,Listen to the question and speak out your answer!,1023.6055209636688,None,1023.5686883449554,1025.6049358844757,Der Test dauert nur fünfzehn Minuten.,dauert,1024.9883316993714,None,1027.7884747028352,None,None,None,None,None,./data/Subject_00/Session_00/Exp_data/2020_Jul_01_1255/rec_QA_run_01_block_000_trial_000.wav,00,00,,A1,False,False,False,False,False,False,False,True,False,True,True,No,No,No,No,No,No,2020_Jul_01_1255,nibs_stage_1,3.2.3,60.04094054459514,
1,0,1,0,0,0,0,0,1,0,1,0,Listen to the question and speak out your answer!,1036.5722630023956,None,1036.5418911457064,1038.572343826294,"Dieses Zelt wurde für extreme Wetterlagen, z.B. Sturm, Schneesturm, gebaut.",gebaut,1037.9556116104127,None,1043.7559997081758,None,1053.1564716339112,1054.1732048988342,None,None,./data/Subject_00/Session_00/Exp_data/2020_Jul_01_1255/rec_QA_run_01_block_000_trial_001.wav,00,00,,A1,False,False,False,False,False,False,False,True,False,True,True,No,No,No,No,No,No,2020_Jul_01_1255,nibs_stage_1,3.2.3,60.04094054459514,
1,0,1,0,0,0,0,0,2,0,2,0,Listen to the question and speak out your answer!,1056.5739178657532,None,1056.5430381774904,1058.573303937912,"Ich kenne dieses Wort nicht, was bedeutet es also?",bedeutet,1057.9233767032624,1061.1736710071564,1061.5569097042085,None,1073.124176645279,1074.1408019065857,None,None,./data/Subject_00/Session_00/Exp_data/2020_Jul_01_1255/rec_QA_run_01_block_000_trial_002.wav,00,00,,A1,False,False,False,False,False,False,False,True,False,True,True,No,No,No,No,No,No,2020_Jul_01_1255,nibs_stage_1,3.2.3,60.04094054459514,
1,0,1,0,0,0,0,0,3,0,3,0,Listen to the question and speak out your answer!,1076.5744178295135,None,1076.5441811561586,1078.5744409561157,"Wir bleiben heute zu Hause, weil wir zu müde sind.",bleiben,1077.9244445800782,1081.2078349590302,1081.624551677704,None,1093.1252006530763,None,None,None,./data/Subject_00/Session_00/Exp_data/2020_Jul_01_1255/rec_QA_run_01_block_000_trial_003.wav,00,00,,A1,False,False,False,False,False,False,False,True,False,True,True,No,No,No,No,No,No,2020_Jul_01_1255,nibs_stage_1,3.2.3,60.04094054459514,
1,0,1,0,0,0,0,0,4,0,4,0,Listen to the question and speak out your answer!,1096.592628955841,None,1096.5617420196534,1098.592180967331,"Das Buch war witzig, ich habe stundenlang gelacht.",gelacht,1097.9421557426454,None,1101.3757437705995,1102.3923978805542,1113.160012626648,1114.1763157844543,None,None,./data/Subject_00/Session_00/Exp_data/2020_Jul_01_1255/rec_QA_run_01_block_000_trial_004.wav,00,00,,A1,False,False,False,False,False,False,False,True,False,True,True,No,No,No,No,No,No,2020_Jul_01_1255,nibs_stage_1,3.2.3,60.04094054459514,
1,0,1,0,0,0,0,0,5,0,5,0,Listen to the question and speak out your answer!,1116.577092885971,None,1116.5461771965029,1118.5764648914337,Dieser Supermarkt hat nur am Tage geöffnet.,geöffnet,1117.9598747730256,None,1121.1268285751344,None,1133.160672569275,None,None,None,./data/Subject_00/Session_00/Exp_data/2020_Jul_01_1255/rec_QA_run_01_block_000_trial_005.wav,00,00,,A1,False,False,False,False,False,False,False,True,False,True,True,No,No,No,No,No,No,2020_Jul_01_1255,nibs_stage_1,3.2.3,60.04094054459514,
1,0,1,0,0,0,0,0,6,0,6,0,Listen to the question and speak out your answer!,1136.6281039714813,None,1136.597321510315,1138.627888917923,Er hängte seine Jacke über die Lehne des Stuhls.,hängte,1138.0109325885774,1140.9611248970032,1141.344504737854,None,1153.211865568161,None,None,None,./data/Subject_00/Session_00/Exp_data/2020_Jul_01_1255/rec_QA_run_01_block_000_trial_006.wav,00,00,,A1,False,False,False,False,False,False,False,True,False,True,True,No,No,No,No,No,No,2020_Jul_01_1255,nibs_stage_1,3.2.3,60.04094054459514,
1,0,1,0,0,0,0,0,7,0,7,0,Listen to the question and speak out your answer!,1156.5956988334656,None,1156.5649881839754,1158.59556889534,"Früh übt sich, wer ein Meister werden will.",werden,1157.9790445804597,1160.729062795639,1161.1123827934266,1162.1290838718414,1173.179430627823,None,None,None,./data/Subject_00/Session_00/Exp_data/2020_Jul_01_1255/rec_QA_run_01_block_000_trial_007.wav,00,00,,A1,False,False,False,False,False,False,False,True,False,True,True,No,No,No,No,No,No,2020_Jul_01_1255,nibs_stage_1,3.2.3,60.04094054459514,
1,0,1,0,0,0,0,0,8,0,8,0,Listen to the question and speak out your answer!,1176.563589811325,None,1176.5332911491396,1178.563278913498,Beim Spinat und Kohl wird man die Blätter essen.,essen,1177.9132806301118,None,1181.1134556770326,None,1193.114071750641,1194.1310439109802,None,None,./data/Subject_00/Session_00/Exp_data/2020_Jul_01_1255/rec_QA_run_01_block_000_trial_008.wav,00,00,,A1,False,False,False,False,False,False,False,True,False,True,True,No,No,No,No,No,No,2020_Jul_01_1255,nibs_stage_1,3.2.3,60.04094054459514,
1,0,1,0,0,0,0,0,9,0,9,0,Listen to the question and speak out your answer!,1196.5643818378448,None,1196.5339701652529,1198.564356803894,Er hat den Vorgang im Tagebuch beschrieben.,beschrieben,1197.9476717948914,None,1200.7811447620393,None,1213.1482175827027,None,None,None,./data/Subject_00/Session_00/Exp_data/2020_Jul_01_1255/rec_QA_run_01_block_000_trial_009.wav,00,00,,A1,False,False,False,False,False,False,False,True,False,True,True,No,No,No,No,No,No,2020_Jul_01_1255,nibs_stage_1,3.2.3,60.04094054459514,
1,0,1,0,0,0,0,0,10,0,10,0,Listen to the question and speak out your answer!,1216.5484127998352,None,1216.5180694103242,1218.5484869480133,Wir leben alle auf der Erde.,leben,1217.8984695911408,None,1220.1653267383576,1221.1819398403168,1233.099263572693,None,1234.5160598754883,None,./data/Subject_00/Session_00/Exp_data/2020_Jul_01_1255/rec_QA_run_01_block_000_trial_010.wav,00,00,,A1,False,False,False,False,False,False,False,True,False,True,True,No,No,No,No,No,No,2020_Jul_01_1255,nibs_stage_1,3.2.3,60.04094054459514,
1,0,1,0,0,0,0,0,11,0,11,0,Listen to the question and speak out your answer!,1236.5829899311066,None,1236.5692719936371,1238.6162958145142,Der Verletzte braucht dringend einen Arzt zu besuchen.,besuchen,1237.9662617683412,None,1241.4333926677705,None,1253.133660697937,None,None,None,./data/Subject_00/Session_00/Exp_data/2020_Jul_01_1255/rec_QA_run_01_block_000_trial_011.wav,00,00,,A1,False,False,False,False,False,False,False,True,False,True,True,No,No,No,No,No,No,2020_Jul_01_1255,nibs_stage_1,3.2.3,60.04094054459514,
1,0,1,0,0,0,0,0,12,0,12,0,Listen to the question and speak out your answer!,1256.5846519470215,None,1256.553544330597,1258.5839757919312,"Sie sollten mehr Obst essen, Vitamin C wird Ihnen bei Erkältungen helfen.",helfen,1257.9672247409821,1262.6178238391876,1263.0009197235108,1264.0175468921661,1273.1681195735932,None,None,None,./data/Subject_00/Session_00/Exp_data/2020_Jul_01_1255/rec_QA_run_01_block_000_trial_012.wav,00,00,,A1,False,False,False,False,False,False,False,True,False,True,True,No,No,No,No,No,No,2020_Jul_01_1255,nibs_stage_1,3.2.3,60.04094054459514,
1,0,1,0,0,0,0,0,13,0,13,0,Listen to the question and speak out your answer!,1276.5849440097809,None,1276.5546663284304,1278.5849759578705,Er konnte auf alle Fragen des Quiz antworten.,antworten,1277.9682826042176,1280.7184448242188,1281.1018277645112,1282.1184740066528,1293.1692646980287,None,None,None,./data/Subject_00/Session_00/Exp_data/2020_Jul_01_1255/rec_QA_run_01_block_000_trial_013.wav,00,00,,A1,False,False,False,False,False,False,False,True,False,True,True,No,No,No,No,No,No,2020_Jul_01_1255,nibs_stage_1,3.2.3,60.04094054459514,
1,0,1,0,0,0,0,0,14,0,14,0,Listen to the question and speak out your answer!,1296.5700359344482,None,1296.555899190903,1298.6027488708496,Sie kümmert sich nur um ihre eigenen Angelegenheiten.,kümmert,1297.952741765976,None,1301.5529366970063,1302.569543838501,1313.1534677982331,1314.1700630187988,None,None,./data/Subject_00/Session_00/Exp_data/2020_Jul_01_1255/rec_QA_run_01_block_000_trial_014.wav,00,00,,A1,False,False,False,False,False,False,False,True,False,True,True,No,No,No,No,No,No,2020_Jul_01_1255,nibs_stage_1,3.2.3,60.04094054459514,
1,0,1,0,0,0,0,0,15,0,15,0,Listen to the question and speak out your answer!,1316.570883989334,None,1316.5400083541872,1318.570298910141,Ihre Freundlichkeit gab mir ein Gefühl von Sicherheit.,gab,1317.9203726291657,None,1321.5204836368562,None,1333.121163749695,1334.1377840042114,None,None,./data/Subject_00/Session_00/Exp_data/2020_Jul_01_1255/rec_QA_run_01_block_000_trial_015.wav,00,00,,A1,False,False,False,False,False,False,False,True,False,True,True,No,No,No,No,No,No,2020_Jul_01_1255,nibs_stage_1,3.2.3,60.04094054459514,
1,0,1,0,0,0,0,0,16,0,16,0,Listen to the question and speak out your answer!,1336.5720489025116,None,1336.540966320038,1338.5713939666748,"Die Deutschen sind immer organisiert und werden alles planen, bevor sie irgendetwas tun.",planen,1337.9548717975617,1343.0383579730988,1343.3883947372437,1344.4049899578094,1353.1555296421052,None,None,None,./data/Subject_00/Session_00/Exp_data/2020_Jul_01_1255/rec_QA_run_01_block_000_trial_016.wav,00,00,,A1,False,False,False,False,False,False,False,True,False,True,True,No,No,No,No,No,No,2020_Jul_01_1255,nibs_stage_1,3.2.3,60.04094054459514,
1,0,1,0,0,0,0,0,17,0,17,0,Listen to the question and speak out your answer!,1356.5724699497223,None,1356.5421171665193,1358.5725739002228,Alexander Bell hat das Telefon erfunden.,erfunden,1357.9557987689973,None,1361.0559655666352,None,1373.1565035820008,1374.173348903656,None,None,./data/Subject_00/Session_00/Exp_data/2020_Jul_01_1255/rec_QA_run_01_block_000_trial_017.wav,00,00,,A1,False,False,False,False,False,False,False,True,False,True,True,No,No,No,No,No,No,2020_Jul_01_1255,nibs_stage_1,3.2.3,60.04094054459514,
1,0,1,0,0,0,0,0,18,0,18,0,Listen to the question and speak out your answer!,1376.557238817215,None,1376.5432012557985,1378.5901119709015,Auf der Youtube kann man Videos anschauen.,anschauen,1377.9401656627656,1380.5237338542938,1380.9070037841798,None,1393.1409896850587,None,None,None,./data/Subject_00/Session_00/Exp_data/2020_Jul_01_1255/rec_QA_run_01_block_000_trial_018.wav,00,00,,A1,False,False,False,False,False,False,False,True,False,True,True,No,No,No,No,No,No,2020_Jul_01_1255,nibs_stage_1,3.2.3,60.04094054459514,
1,0,1,0,0,0,0,0,19,0,19,0,Listen to the question and speak out your answer!,1396.59188580513,None,1396.5609221935274,1398.59126496315,Ich schnitt das Fleisch in Würfel.,schnitt,1397.9748417377473,None,1400.27468457222,None,1413.175394678116,1414.1919748783112,None,None,./data/Subject_00/Session_00/Exp_data/2020_Jul_01_1255/rec_QA_run_01_block_000_trial_019.wav,00,00,,A1,False,False,False,False,False,False,False,True,False,True,True,No,No,No,No,No,No,2020_Jul_01_1255,nibs_stage_1,3.2.3,60.04094054459514,
1,0,1,0,0,0,0,0,20,0,20,0,Listen to the question and speak out your answer!,1416.5928149223328,None,1416.5619271278383,1418.5922949314117,"Wir haben eine Testversion heruntergeladen, um die Nutzbarkeit der Software zu testen.",heruntergeladen,1417.9756015777589,None,1423.675905609131,1424.692617893219,1433.1764127254487,None,None,None,./data/Subject_00/Session_00/Exp_data/2020_Jul_01_1255/rec_QA_run_01_block_000_trial_020.wav,00,00,,A1,False,False,False,False,False,False,False,True,False,True,True,No,No,No,No,No,No,2020_Jul_01_1255,nibs_stage_1,3.2.3,60.04094054459514,
1,0,1,0,0,0,0,0,21,0,21,0,Listen to the question and speak out your answer!,1436.59397482872,None,1436.5796811103821,1438.6266767978668,Sein Versprechen klingt glaubwürdig.,klingt,1437.9766606330872,None,1440.6435956001283,None,1453.1443716526032,None,None,None,./data/Subject_00/Session_00/Exp_data/2020_Jul_01_1255/rec_QA_run_01_block_000_trial_021.wav,00,00,,A1,False,False,False,False,False,False,False,True,False,True,True,No,No,No,No,No,No,2020_Jul_01_1255,nibs_stage_1,3.2.3,60.04094054459514,
1,0,1,0,0,0,0,0,22,0,22,0,Listen to the question and speak out your answer!,1456.5943048000336,None,1456.5642602920534,1458.5943717956543,Er pflegte jeden Abend auf Pferden zu reiten und durch die Wälder zu gehen.,reiten,1457.9778336524964,1462.3945767879486,1462.777959728241,None,1473.1787625789643,1474.1956448554993,None,None,./data/Subject_00/Session_00/Exp_data/2020_Jul_01_1255/rec_QA_run_01_block_000_trial_022.wav,00,00,,A1,False,False,False,False,False,False,False,True,False,True,True,No,No,No,No,No,No,2020_Jul_01_1255,nibs_stage_1,3.2.3,60.04094054459514,
1,0,1,0,0,0,0,0,23,0,23,0,Listen to the question and speak out your answer!,1476.5626549720764,None,1476.5321252822878,1478.5623569488525,"Wir mussten ein amtliches Formular ausfüllen, als wir geheiratet haben.",ausfüllen,1477.912357711792,None,1482.645888710022,1483.6626088619232,1493.113134765625,1494.12984085083,None,None,./data/Subject_00/Session_00/Exp_data/2020_Jul_01_1255/rec_QA_run_01_block_000_trial_023.wav,00,00,,A1,False,False,False,False,False,False,False,True,False,True,True,No,No,No,No,No,No,2020_Jul_01_1255,nibs_stage_1,3.2.3,60.04094054459514,
1,0,1,0,0,0,0,0,24,0,24,0,Listen to the question and speak out your answer!,1496.56312084198,None,1496.533030319214,1498.5631380081177,"Tut mir leid, darf ich fragen warum?",fragen,1497.9133357048036,1500.4301488399506,1500.8132907390595,None,1513.1139217853547,1514.1306188106537,None,None,./data/Subject_00/Session_00/Exp_data/2020_Jul_01_1255/rec_QA_run_01_block_000_trial_024.wav,00,00,,A1,False,False,False,False,False,False,False,True,False,True,True,No,No,No,No,No,No,2020_Jul_01_1255,nibs_stage_1,3.2.3,60.04094054459514,
1,0,1,0,0,0,0,0,,,,,,,,,,,,,,,,,,,,,00,00,,A1,False,False,False,False,False,False,False,True,False,True,True,No,No,No,No,No,No,2020_Jul_01_1255,nibs_stage_1,3.2.3,60.04094054459514,
1,0,1,0,1,0,1,0,0,0,0,0,Listen to the question and speak out your answer!,1518.5808818340302,None,1518.5537268638611,1520.5809400081635,"Ausländische Studenten, die wenig Geld haben, brauchen ein Stipendium.",brauchen,1519.9310237407685,1524.4146568775177,1524.7979847431184,None,None,None,None,None,./data/Subject_00/Session_00/Exp_data/2020_Jul_01_1255/rec_QA_run_01_block_001_trial_000.wav,00,00,,A1,False,False,False,False,False,False,False,True,False,True,True,No,No,No,No,No,No,2020_Jul_01_1255,nibs_stage_1,3.2.3,60.04094054459514,
1,0,1,0,1,0,1,0,1,0,1,0,Listen to the question and speak out your answer!,1536.565418958664,None,1536.5351175308228,1538.565320968628,Der Ton macht die Musik.,macht,1537.948675775528,1539.598704814911,1539.9820107460023,None,1553.1495086193086,None,None,None,./data/Subject_00/Session_00/Exp_data/2020_Jul_01_1255/rec_QA_run_01_block_001_trial_001.wav,00,00,,A1,False,False,False,False,False,False,False,True,False,True,True,No,No,No,No,No,No,2020_Jul_01_1255,nibs_stage_1,3.2.3,60.04094054459514,
1,0,1,0,1,0,1,0,2,0,2,0,Listen to the question and speak out your answer!,1556.5667989253998,None,1556.5360842227938,1558.5662949085236,Josi hat letzte Nacht nur wenig Schlaf gefunden.,gefunden,1557.9162887573243,1560.9330949783325,1561.3498636722566,None,1573.1173416614533,None,None,None,./data/Subject_00/Session_00/Exp_data/2020_Jul_01_1255/rec_QA_run_01_block_001_trial_002.wav,00,00,,A1,False,False,False,False,False,False,False,True,False,True,True,No,No,No,No,No,No,2020_Jul_01_1255,nibs_stage_1,3.2.3,60.04094054459514,
1,0,1,0,1,0,1,0,3,0,3,0,Listen to the question and speak out your answer!,1576.5673098564148,None,1576.536980199814,1578.5675268173218,Sonja nimmt ihren Tee mit Milch und Zucker.,nimmt,1577.9174245834351,None,1581.0508297920228,None,1593.118217611313,None,None,None,./data/Subject_00/Session_00/Exp_data/2020_Jul_01_1255/rec_QA_run_01_block_001_trial_003.wav,00,00,,A1,False,False,False,False,False,False,False,True,False,True,True,No,No,No,No,No,No,2020_Jul_01_1255,nibs_stage_1,3.2.3,60.04094054459514,
1,0,1,0,1,0,1,0,4,0,4,0,Listen to the question and speak out your answer!,1596.6524930000305,None,1596.6383909702301,1598.685052871704,Du muss deine schmutzige Kleidung in der Wäscherei waschen.,waschen,1598.035131597519,None,1601.5686477661134,1602.5853459835052,1613.2358416557313,None,None,None,./data/Subject_00/Session_00/Exp_data/2020_Jul_01_1255/rec_QA_run_01_block_001_trial_004.wav,00,00,,A1,False,False,False,False,False,False,False,True,False,True,True,No,No,No,No,No,No,2020_Jul_01_1255,nibs_stage_1,3.2.3,60.04094054459514,
1,0,1,0,1,0,1,0,5,0,5,0,Listen to the question and speak out your answer!,1616.5695049762726,None,1616.5389634609223,1618.569590806961,"Die Suppe wird nicht so heiß gegessen, wie sie gekocht wird.",gegessen,1617.919423723221,None,1621.6529475688935,1622.6695518493652,1633.120217704773,None,None,None,./data/Subject_00/Session_00/Exp_data/2020_Jul_01_1255/rec_QA_run_01_block_001_trial_005.wav,00,00,,A1,False,False,False,False,False,False,False,True,False,True,True,No,No,No,No,No,No,2020_Jul_01_1255,nibs_stage_1,3.2.3,60.04094054459514,
1,0,1,0,1,0,1,0,6,0,6,0,Listen to the question and speak out your answer!,1636.5713109970093,None,1636.556780052185,1638.6037299633026,Eltern kümmern sich um ihre Kinder.,kümmern,1637.9537595748902,None,1640.5542546749116,None,1653.1545256614686,None,None,None,./data/Subject_00/Session_00/Exp_data/2020_Jul_01_1255/rec_QA_run_01_block_001_trial_006.wav,00,00,,A1,False,False,False,False,False,False,False,True,False,True,True,No,No,No,No,No,No,2020_Jul_01_1255,nibs_stage_1,3.2.3,60.04094054459514,
1,0,1,0,1,0,1,0,7,0,7,0,Listen to the question and speak out your answer!,1656.5719599723816,None,1656.5410802841188,1658.5715308189392,Ich kann das Buch nirgends finden.,finden,1657.9547688007356,None,1660.2215925693513,None,1673.1556416988374,None,None,None,./data/Subject_00/Session_00/Exp_data/2020_Jul_01_1255/rec_QA_run_01_block_001_trial_007.wav,00,00,,A1,False,False,False,False,False,False,False,True,False,True,True,No,No,No,No,No,No,2020_Jul_01_1255,nibs_stage_1,3.2.3,60.04094054459514,
1,0,1,0,1,0,1,0,8,0,8,0,Listen to the question and speak out your answer!,1676.5724558830261,None,1676.542206335068,1678.5725638866425,Ich muss für meine wichtige Prüfung morgen lernen.,lernen,1677.9558786392213,1680.8726148605347,1681.256196641922,None,1693.156704568863,1694.1732938289642,None,None,./data/Subject_00/Session_00/Exp_data/2020_Jul_01_1255/rec_QA_run_01_block_001_trial_008.wav,00,00,,A1,False,False,False,False,False,False,False,True,False,True,True,No,No,No,No,No,No,2020_Jul_01_1255,nibs_stage_1,3.2.3,60.04094054459514,
1,0,1,0,1,0,1,0,9,0,9,0,Listen to the question and speak out your answer!,1696.557140827179,None,1696.5264953613282,1698.5569458007812,"Pinguine bewohnen die Antarktis, wie auch Robben und große Seelöwen.",bewohnen,1697.940290594101,None,1702.9405366420747,None,1713.1409965991975,None,None,None,./data/Subject_00/Session_00/Exp_data/2020_Jul_01_1255/rec_QA_run_01_block_001_trial_009.wav,00,00,,A1,False,False,False,False,False,False,False,True,False,True,True,No,No,No,No,No,No,2020_Jul_01_1255,nibs_stage_1,3.2.3,60.04094054459514,
1,0,1,0,1,0,1,0,10,0,10,0,Listen to the question and speak out your answer!,1716.5918369293213,None,1716.5609732151033,1718.5913360118866,Zuhause erzählt er seiner kleinen Schwester davon.,erzählt,1717.974890613556,1721.1580939292908,1721.541533613205,1722.5582008361816,1733.1754907608033,1734.1921298503876,None,None,./data/Subject_00/Session_00/Exp_data/2020_Jul_01_1255/rec_QA_run_01_block_001_trial_010.wav,00,00,,A1,False,False,False,False,False,False,False,True,False,True,True,No,No,No,No,No,No,2020_Jul_01_1255,nibs_stage_1,3.2.3,60.04094054459514,
1,0,1,0,1,0,1,0,11,0,11,0,Listen to the question and speak out your answer!,1736.5923709869385,None,1736.5620642185213,1738.5924048423767,Mit meinem Wagen kann ich nach Tibet reisen.,reisen,1737.975717687607,1740.5924758911133,1740.975776576996,None,1753.17649974823,None,None,None,./data/Subject_00/Session_00/Exp_data/2020_Jul_01_1255/rec_QA_run_01_block_001_trial_011.wav,00,00,,A1,False,False,False,False,False,False,False,True,False,True,True,No,No,No,No,No,No,2020_Jul_01_1255,nibs_stage_1,3.2.3,60.04094054459514,
1,0,1,0,1,0,1,0,12,0,12,0,Listen to the question and speak out your answer!,1756.5772259235382,None,1756.546386384964,1758.576763868332,"Im Unterricht habe ich das Wichtige notiert, was der Lehrer gesagt.",notiert,1757.9600826740266,None,1762.427103662491,1763.4436719417572,1773.1611696720124,None,None,None,./data/Subject_00/Session_00/Exp_data/2020_Jul_01_1255/rec_QA_run_01_block_001_trial_012.wav,00,00,,A1,False,False,False,False,False,False,False,True,False,True,True,No,No,No,No,No,No,2020_Jul_01_1255,nibs_stage_1,3.2.3,60.04094054459514,
1,0,1,0,1,0,1,0,13,0,13,0,Listen to the question and speak out your answer!,1776.5617339611053,None,1776.531017446518,1778.5615088939667,Zur Registrierung meines Kontos musste ich ein Formular ausfüllen.,ausfüllen,1777.9113527774812,1781.9615848064423,1782.3785237312318,None,1793.1121686935426,None,1794.5288968086243,None,./data/Subject_00/Session_00/Exp_data/2020_Jul_01_1255/rec_QA_run_01_block_001_trial_013.wav,00,00,,A1,False,False,False,False,False,False,False,True,False,True,True,No,No,No,No,No,No,2020_Jul_01_1255,nibs_stage_1,3.2.3,60.04094054459514,
1,0,1,0,1,0,1,0,14,0,14,0,Listen to the question and speak out your answer!,1796.5957219600677,None,1796.5821089267731,1798.6289269924164,"Ich möchte einen weiteren Test durchführen, um die Ergebnisse zu prüfen.",prüfen,1797.9791378021241,None,1802.712680721283,None,1813.1796325683595,None,None,None,./data/Subject_00/Session_00/Exp_data/2020_Jul_01_1255/rec_QA_run_01_block_001_trial_014.wav,00,00,,A1,False,False,False,False,False,False,False,True,False,True,True,No,No,No,No,No,No,2020_Jul_01_1255,nibs_stage_1,3.2.3,60.04094054459514,
1,0,1,0,1,0,1,0,15,0,15,0,Listen to the question and speak out your answer!,1816.5803558826447,None,1816.5495559692383,1818.579973936081,Er hat seine Katze oft mit Fisch gefüttert.,gefüttert,1817.9299487113954,1820.4135258197784,1820.8304656982423,None,1833.130685710907,None,None,None,./data/Subject_00/Session_00/Exp_data/2020_Jul_01_1255/rec_QA_run_01_block_001_trial_015.wav,00,00,,A1,False,False,False,False,False,False,False,True,False,True,True,No,No,No,No,No,No,2020_Jul_01_1255,nibs_stage_1,3.2.3,60.04094054459514,
1,0,1,0,1,0,1,0,16,0,16,0,Listen to the question and speak out your answer!,1836.5810899734497,None,1836.56727809906,1838.6142618656158,Man wird damit bargeldlos bezahlen können.,bezahlen,1837.96427359581,1840.581046819687,1840.9645005702973,None,1853.1650725841523,None,None,None,./data/Subject_00/Session_00/Exp_data/2020_Jul_01_1255/rec_QA_run_01_block_001_trial_016.wav,00,00,,A1,False,False,False,False,False,False,False,True,False,True,True,No,No,No,No,No,No,2020_Jul_01_1255,nibs_stage_1,3.2.3,60.04094054459514,
1,0,1,0,1,0,1,0,17,0,17,0,Listen to the question and speak out your answer!,1856.5819878578186,None,1856.5516362667086,1858.5822749137878,"Doris ist leider zu spät gekommen, die Apotheke hat heute schon geschlossen.",geschlossen,1857.9321757793427,1862.6156640052795,1862.999027633667,None,1873.1327747344972,None,None,None,./data/Subject_00/Session_00/Exp_data/2020_Jul_01_1255/rec_QA_run_01_block_001_trial_017.wav,00,00,,A1,False,False,False,False,False,False,False,True,False,True,True,No,No,No,No,No,No,2020_Jul_01_1255,nibs_stage_1,3.2.3,60.04094054459514,
1,0,1,0,1,0,1,0,18,0,18,0,Listen to the question and speak out your answer!,1876.583182811737,None,1876.552691268921,1878.5831308364868,"Danke für den Smoothie, den Sie mir machten.",machten,1877.9664505958558,1880.5831348896027,1880.9665996074677,1881.9832108020782,1893.1672607898713,1894.1838688850403,None,None,./data/Subject_00/Session_00/Exp_data/2020_Jul_01_1255/rec_QA_run_01_block_001_trial_018.wav,00,00,,A1,False,False,False,False,False,False,False,True,False,True,True,No,No,No,No,No,No,2020_Jul_01_1255,nibs_stage_1,3.2.3,60.04094054459514,
1,0,1,0,1,0,1,0,19,0,19,0,Listen to the question and speak out your answer!,1896.5848269462585,None,1896.5705201148987,1898.6173868179321,Trotz meines Verbots hat er sein Auto vor meinem Haus geparkt.,geparkt,1897.9674905776978,None,1902.0677806377412,None,1913.1681915760041,None,None,None,./data/Subject_00/Session_00/Exp_data/2020_Jul_01_1255/rec_QA_run_01_block_001_trial_019.wav,00,00,,A1,False,False,False,False,False,False,False,True,False,True,True,No,No,No,No,No,No,2020_Jul_01_1255,nibs_stage_1,3.2.3,60.04094054459514,
1,0,1,0,1,0,1,0,20,0,20,0,Listen to the question and speak out your answer!,1916.5851368904114,None,1916.5547802925112,1918.585415840149,Das Huhn legt jeden Tag ein Ei.,legt,1917.9350437164308,1920.0853629112244,1920.4684957504273,None,1933.135935688019,None,None,None,./data/Subject_00/Session_00/Exp_data/2020_Jul_01_1255/rec_QA_run_01_block_001_trial_020.wav,00,00,,A1,False,False,False,False,False,False,False,True,False,True,True,No,No,No,No,No,No,2020_Jul_01_1255,nibs_stage_1,3.2.3,60.04094054459514,
1,0,1,0,1,0,1,0,21,0,21,0,Listen to the question and speak out your answer!,1936.5861508846283,None,1936.5558202743532,1938.5863268375397,"Thomas hat schon so kurze Haare, er muss sich nicht kämmen.",kämmen,1937.936079645157,1941.3529739379883,1941.7363757133485,None,1953.1369627952577,1954.1535789966583,None,None,./data/Subject_00/Session_00/Exp_data/2020_Jul_01_1255/rec_QA_run_01_block_001_trial_021.wav,00,00,,A1,False,False,False,False,False,False,False,True,False,True,True,No,No,No,No,No,No,2020_Jul_01_1255,nibs_stage_1,3.2.3,60.04094054459514,
1,0,1,0,1,0,1,0,22,0,22,0,Listen to the question and speak out your answer!,1956.588075876236,None,1956.5568073272707,1958.5872650146484,Sie hat die Äpfel vom Baum geholt.,geholt,1957.9706555843354,1960.1205599308014,1960.5040177345277,None,1973.171366596222,None,None,None,./data/Subject_00/Session_00/Exp_data/2020_Jul_01_1255/rec_QA_run_01_block_001_trial_022.wav,00,00,,A1,False,False,False,False,False,False,False,True,False,True,True,No,No,No,No,No,No,2020_Jul_01_1255,nibs_stage_1,3.2.3,60.04094054459514,
1,0,1,0,1,0,1,0,23,0,23,0,Listen to the question and speak out your answer!,1976.5723450183868,None,1976.5412155628205,1978.571615934372,Wir werden jedes Paket innerhalb von fünf Arbeitstagen liefern.,liefern,1977.954854631424,None,1982.255153799057,None,1993.1558946609498,1994.1724410057068,None,None,./data/Subject_00/Session_00/Exp_data/2020_Jul_01_1255/rec_QA_run_01_block_001_trial_023.wav,00,00,,A1,False,False,False,False,False,False,False,True,False,True,True,No,No,No,No,No,No,2020_Jul_01_1255,nibs_stage_1,3.2.3,60.04094054459514,
1,0,1,0,1,0,1,0,24,0,24,0,Listen to the question and speak out your answer!,1996.5730638504028,None,1996.5590610027314,1998.6059749126434,Diesen Irrtum musste er teuer bezahlen.,bezahlen,1997.955966615677,None,2000.722705745697,None,2013.1567727565766,None,None,None,./data/Subject_00/Session_00/Exp_data/2020_Jul_01_1255/rec_QA_run_01_block_001_trial_024.wav,00,00,,A1,False,False,False,False,False,False,False,True,False,True,True,No,No,No,No,No,No,2020_Jul_01_1255,nibs_stage_1,3.2.3,60.04094054459514,
1,0,1,0,1,0,1,0,,,,,,,,,,,,,,,,,,,,,00,00,,A1,False,False,False,False,False,False,False,True,False,True,True,No,No,No,No,No,No,2020_Jul_01_1255,nibs_stage_1,3.2.3,60.04094054459514,
1,0,1,0,,,,,,,,,,,,,,,,,,,,,,,,,00,00,,A1,False,False,False,False,False,False,False,True,False,True,True,No,No,No,No,No,No,2020_Jul_01_1255,nibs_stage_1,3.2.3,60.04094054459514,
2,0,2,0,0,0,0,0,0,0,0,0,Listen to the question and speak out your answer!,2023.5912418365479,None,2023.5710322380066,2025.5910878181458,Der Mond scheint hell.,scheint,2024.9407238006593,2026.324091911316,2026.7408007621766,None,None,None,None,None,./data/Subject_00/Session_00/Exp_data/2020_Jul_01_1255/rec_QA_run_02_block_000_trial_000.wav,00,00,,A1,False,False,False,False,False,False,False,True,False,True,True,No,No,No,No,No,No,2020_Jul_01_1255,nibs_stage_1,3.2.3,60.04094054459514,
2,0,2,0,0,0,0,0,1,0,1,0,Listen to the question and speak out your answer!,2036.5918409824371,None,2036.5611153125765,2038.5921039581299,Der Sturm entlaubte alle Bäume in unserem Garten.,entlaubte,2037.9746886730195,2041.1916258335114,2041.5417768001557,2042.5582399368286,2053.1756147384644,None,None,None,./data/Subject_00/Session_00/Exp_data/2020_Jul_01_1255/rec_QA_run_02_block_000_trial_001.wav,00,00,,A1,False,False,False,False,False,False,False,True,False,True,True,No,No,No,No,No,No,2020_Jul_01_1255,nibs_stage_1,3.2.3,60.04094054459514,
2,0,2,0,0,0,0,0,2,0,2,0,Listen to the question and speak out your answer!,2056.5925188064575,None,2056.5622871398928,2058.5924530029297,Morgen werden wir um sieben Uhr aufstehen.,aufstehen,2057.975782775879,2060.559225797653,2060.9426077842713,None,2073.176822566986,2074.193498849869,None,None,./data/Subject_00/Session_00/Exp_data/2020_Jul_01_1255/rec_QA_run_02_block_000_trial_002.wav,00,00,,A1,False,False,False,False,False,False,False,True,False,True,True,No,No,No,No,No,No,2020_Jul_01_1255,nibs_stage_1,3.2.3,60.04094054459514,
2,0,2,0,0,0,0,0,3,0,3,0,Listen to the question and speak out your answer!,2076.5942549705505,None,2076.5633721828463,2078.5940968990326,"Das verstehe ich nicht, was meinst du damit?",meinst,2077.9770626068116,2080.660532951355,2081.043890619278,2082.0605149269104,2093.1779076099397,2094.195067882538,None,None,./data/Subject_00/Session_00/Exp_data/2020_Jul_01_1255/rec_QA_run_02_block_000_trial_003.wav,00,00,,A1,False,False,False,False,False,False,False,True,False,True,True,No,No,No,No,No,No,2020_Jul_01_1255,nibs_stage_1,3.2.3,60.04094054459514,
2,0,2,0,0,0,0,0,4,0,4,0,Listen to the question and speak out your answer!,2096.5946187973022,None,2096.5645242214205,2098.594621896744,"„Ich heiße Sam“, war der erste Satz, den er in großen Buchstaben schreiben konnte.",schreiben,2097.977883720398,None,2103.344831609726,None,2113.1787597179414,None,None,None,./data/Subject_00/Session_00/Exp_data/2020_Jul_01_1255/rec_QA_run_02_block_000_trial_004.wav,00,00,,A1,False,False,False,False,False,False,False,True,False,True,True,No,No,No,No,No,No,2020_Jul_01_1255,nibs_stage_1,3.2.3,60.04094054459514,
2,0,2,0,0,0,0,0,5,0,5,0,Listen to the question and speak out your answer!,2116.5959498882294,None,2116.565575170517,2118.5956089496613,Vor dem Supermarkt kann man auf einer großen Fläche parken. ,parken,2117.9790946483613,None,2121.8457967281342,2122.862557888031,2133.1799866199494,2134.1965548992157,None,None,./data/Subject_00/Session_00/Exp_data/2020_Jul_01_1255/rec_QA_run_02_block_000_trial_005.wav,00,00,,A1,False,False,False,False,False,False,False,True,False,True,True,No,No,No,No,No,No,2020_Jul_01_1255,nibs_stage_1,3.2.3,60.04094054459514,
2,0,2,0,0,0,0,0,6,0,6,0,Listen to the question and speak out your answer!,2136.547472000122,None,2136.533145236969,2138.5799918174744,Er heißt tatsächlich Alexander doch alle nennen ihn Alex.,nennen,2137.929971599579,2141.3803219795227,2141.7635897636414,None,2153.130850696564,None,None,None,./data/Subject_00/Session_00/Exp_data/2020_Jul_01_1255/rec_QA_run_02_block_000_trial_006.wav,00,00,,A1,False,False,False,False,False,False,False,True,False,True,True,No,No,No,No,No,No,2020_Jul_01_1255,nibs_stage_1,3.2.3,60.04094054459514,
2,0,2,0,0,0,0,0,7,0,7,0,Listen to the question and speak out your answer!,2156.5809218883514,None,2156.5506692409517,2158.5810208320618,"Sie war zu stolz, um ihn um Hilfe zu bitten.",bitten,2157.9643627643586,None,2161.231271648407,None,2173.165164613724,None,None,None,./data/Subject_00/Session_00/Exp_data/2020_Jul_01_1255/rec_QA_run_02_block_000_trial_007.wav,00,00,,A1,False,False,False,False,False,False,False,True,False,True,True,No,No,No,No,No,No,2020_Jul_01_1255,nibs_stage_1,3.2.3,60.04094054459514,
2,0,2,0,0,0,0,0,8,0,8,0,Listen to the question and speak out your answer!,2176.5819778442383,None,2176.5517242431642,2178.582407951355,"Nachdem ich nicht da war, kann ich nichts dazu sagen.",sagen,2177.965394639969,None,2181.365613603592,None,2193.1662036418916,None,None,None,./data/Subject_00/Session_00/Exp_data/2020_Jul_01_1255/rec_QA_run_02_block_000_trial_008.wav,00,00,,A1,False,False,False,False,False,False,False,True,False,True,True,No,No,No,No,No,No,2020_Jul_01_1255,nibs_stage_1,3.2.3,60.04094054459514,
2,0,2,0,0,0,0,0,9,0,9,0,Listen to the question and speak out your answer!,2196.566965818405,None,2196.536076450348,2198.566363811493,Die technologische Entwicklung schafft immer kleinere Computer.,schafft,2197.916516685486,None,2202.116577768326,2203.1334578990936,2213.1172486782075,None,None,None,./data/Subject_00/Session_00/Exp_data/2020_Jul_01_1255/rec_QA_run_02_block_000_trial_009.wav,00,00,,A1,False,False,False,False,False,False,False,True,False,True,True,No,No,No,No,No,No,2020_Jul_01_1255,nibs_stage_1,3.2.3,60.04094054459514,
2,0,2,0,0,0,0,0,10,0,10,0,Listen to the question and speak out your answer!,2216.701267004013,None,2216.6705944538116,2218.7008929252625,Menschen und Firmen können ein Konto bei der Bank eröffnen.,eröffnen,2218.0840806007386,2221.4343028068542,2221.8176876544953,None,2233.2849897384644,2234.301558971405,None,None,./data/Subject_00/Session_00/Exp_data/2020_Jul_01_1255/rec_QA_run_02_block_000_trial_010.wav,00,00,,A1,False,False,False,False,False,False,False,True,False,True,True,No,No,No,No,No,No,2020_Jul_01_1255,nibs_stage_1,3.2.3,60.04094054459514,
2,0,2,0,0,0,0,0,11,0,11,0,Listen to the question and speak out your answer!,2236.552349805832,None,2236.521400356293,2238.551876783371,Die Polizei sammelte alle verfügbaren Informationen.,sammelte,2237.901872777939,2241.618703842163,2242.002083683014,2243.01868391037,2253.102687740326,None,2254.519292831421,None,./data/Subject_00/Session_00/Exp_data/2020_Jul_01_1255/rec_QA_run_02_block_000_trial_011.wav,00,00,,A1,False,False,False,False,False,False,False,True,False,True,True,No,No,No,No,No,No,2020_Jul_01_1255,nibs_stage_1,3.2.3,60.04094054459514,
2,0,2,0,0,0,0,0,12,0,12,0,Listen to the question and speak out your answer!,2256.5870249271393,None,2256.5558121681215,2258.5862448215485,Ich beendete meine Arbeit und erhielt eine neue Aufgabe.,beendete,2257.9695106983186,None,2262.069945716858,None,2273.1703757286073,None,None,None,./data/Subject_00/Session_00/Exp_data/2020_Jul_01_1255/rec_QA_run_02_block_000_trial_012.wav,00,00,,A1,False,False,False,False,False,False,False,True,False,True,True,No,No,No,No,No,No,2020_Jul_01_1255,nibs_stage_1,3.2.3,60.04094054459514,
2,0,2,0,0,0,0,0,13,0,13,0,Listen to the question and speak out your answer!,2276.587835788727,None,2276.5569341659548,2278.587313890457,Die Präsentation dauert eine halbe Stunde.,dauert,2277.9705466270448,None,2281.137474679947,None,2293.1714407444,None,None,None,./data/Subject_00/Session_00/Exp_data/2020_Jul_01_1255/rec_QA_run_02_block_000_trial_013.wav,00,00,,A1,False,False,False,False,False,False,False,True,False,True,True,No,No,No,No,No,No,2020_Jul_01_1255,nibs_stage_1,3.2.3,60.04094054459514,
2,0,2,0,0,0,0,0,14,0,14,0,Listen to the question and speak out your answer!,2296.5885939598083,None,2296.5580082416536,2298.588360786438,Diese Telefinnummer ist leicht zu merken.,merken,2297.9716767311097,2300.5551059246063,2300.93848361969,2301.9551060199738,2313.172461652756,None,None,None,./data/Subject_00/Session_00/Exp_data/2020_Jul_01_1255/rec_QA_run_02_block_000_trial_014.wav,00,00,,A1,False,False,False,False,False,False,False,True,False,True,True,No,No,No,No,No,No,2020_Jul_01_1255,nibs_stage_1,3.2.3,60.04094054459514,
2,0,2,0,0,0,0,0,15,0,15,0,Listen to the question and speak out your answer!,2316.5893638134003,None,2316.559028196335,2318.5893959999084,Afrika liegt südlich von Europa .,liegt,2317.9393886566163,2320.5227308273315,2320.939548635483,None,2333.140241765976,None,None,None,./data/Subject_00/Session_00/Exp_data/2020_Jul_01_1255/rec_QA_run_02_block_000_trial_015.wav,00,00,,A1,False,False,False,False,False,False,False,True,False,True,True,No,No,No,No,No,No,2020_Jul_01_1255,nibs_stage_1,3.2.3,60.04094054459514,
2,0,2,0,0,0,0,0,16,0,16,0,Listen to the question and speak out your answer!,2336.591328859329,None,2336.577015113831,2338.624005794525,Aus Fehlern kann man lernen.,lernen,2337.974281692505,2339.724532842636,2340.107554578781,2341.1241538524628,2353.1747225761414,2354.191342830658,None,None,./data/Subject_00/Session_00/Exp_data/2020_Jul_01_1255/rec_QA_run_02_block_000_trial_016.wav,00,00,,A1,False,False,False,False,False,False,False,True,False,True,True,No,No,No,No,No,No,2020_Jul_01_1255,nibs_stage_1,3.2.3,60.04094054459514,
2,0,2,0,0,0,0,0,17,0,17,0,Listen to the question and speak out your answer!,2356.5755689144135,None,2356.561254310608,2358.608405828476,"Sie besichtigten das Haus, bevor sie es kauften.",besichtigten,2357.9586967468263,None,2361.4918946266175,None,2373.1591757774354,None,None,None,./data/Subject_00/Session_00/Exp_data/2020_Jul_01_1255/rec_QA_run_02_block_000_trial_017.wav,00,00,,A1,False,False,False,False,False,False,False,True,False,True,True,No,No,No,No,No,No,2020_Jul_01_1255,nibs_stage_1,3.2.3,60.04094054459514,
2,0,2,0,0,0,0,0,18,0,18,0,Listen to the question and speak out your answer!,2376.576728820801,None,2376.5457401752474,2378.576068878174,Kannst du bitte die Wäsche in die Sonne hängen?,hängen,2377.95942773819,2380.3761279582977,2380.759571695328,None,2393.1602486610414,None,None,None,./data/Subject_00/Session_00/Exp_data/2020_Jul_01_1255/rec_QA_run_02_block_000_trial_018.wav,00,00,,A1,False,False,False,False,False,False,False,True,False,True,True,No,No,No,No,No,No,2020_Jul_01_1255,nibs_stage_1,3.2.3,60.04094054459514,
2,0,2,0,0,0,0,0,19,0,19,0,Listen to the question and speak out your answer!,2396.5611548423767,None,2396.54657034874,2398.5937538146973,Mein Freund führt ein erfolgreiches Geschäft.,führt,2397.943581724167,2400.660575866699,2401.0438117027284,2402.060432910919,2413.144451761246,2414.1611518859863,None,None,./data/Subject_00/Session_00/Exp_data/2020_Jul_01_1255/rec_QA_run_02_block_000_trial_019.wav,00,00,,A1,False,False,False,False,False,False,False,True,False,True,True,No,No,No,No,No,No,2020_Jul_01_1255,nibs_stage_1,3.2.3,60.04094054459514,
2,0,2,0,0,0,0,0,20,0,20,0,Listen to the question and speak out your answer!,2416.628123998642,None,2416.597658729553,2418.627970933914,Simon hat riesige Bilder gemalt.,gemalt,2418.0113817691804,2420.2280519008636,2420.611433649063,None,2433.21209564209,None,None,None,./data/Subject_00/Session_00/Exp_data/2020_Jul_01_1255/rec_QA_run_02_block_000_trial_020.wav,00,00,,A1,False,False,False,False,False,False,False,True,False,True,True,No,No,No,No,No,No,2020_Jul_01_1255,nibs_stage_1,3.2.3,60.04094054459514,
2,0,2,0,0,0,0,0,21,0,21,0,Listen to the question and speak out your answer!,2436.596181869507,None,2436.5654323577883,2438.5956659317017,"Der Zug fährt gleich ab, wir müssen uns beeilen.",beeilen,2437.9791597366334,2440.8624818325043,2441.2458375930787,2442.262529850006,2453.1797877788545,2454.1964988708496,None,None,./data/Subject_00/Session_00/Exp_data/2020_Jul_01_1255/rec_QA_run_02_block_000_trial_021.wav,00,00,,A1,False,False,False,False,False,False,False,True,False,True,True,No,No,No,No,No,No,2020_Jul_01_1255,nibs_stage_1,3.2.3,60.04094054459514,
2,0,2,0,0,0,0,0,22,0,22,0,Listen to the question and speak out your answer!,2456.563815832138,None,2456.5330131530764,2458.563388824463,Das Fleisch wurde über dem offenen Feuer gegrillt.,gegrillt,2457.9467216968537,None,2461.3135937690736,None,2473.14751663208,2474.1643438339233,None,None,./data/Subject_00/Session_00/Exp_data/2020_Jul_01_1255/rec_QA_run_02_block_000_trial_022.wav,00,00,,A1,False,False,False,False,False,False,False,True,False,True,True,No,No,No,No,No,No,2020_Jul_01_1255,nibs_stage_1,3.2.3,60.04094054459514,
2,0,2,0,0,0,0,0,23,0,23,0,Listen to the question and speak out your answer!,2476.5652029514313,None,2476.550774049759,2478.5979619026184,"Da Elena arbeiten muss, überlässt sie ihre Kinder seiner Mutter.",überlässt,2477.947770738602,None,2482.0813106536866,2483.098198890686,2493.148628616333,None,None,None,./data/Subject_00/Session_00/Exp_data/2020_Jul_01_1255/rec_QA_run_02_block_000_trial_023.wav,00,00,,A1,False,False,False,False,False,False,False,True,False,True,True,No,No,No,No,No,No,2020_Jul_01_1255,nibs_stage_1,3.2.3,60.04094054459514,
2,0,2,0,0,0,0,0,24,0,24,0,Listen to the question and speak out your answer!,2496.5659878253937,None,2496.535203266144,2498.5655570030212,"Wenn ich einmal angefangen habe, kann mich nichts mehr aufhalten.",aufhalten,2497.9154247283936,None,2502.0823546886445,2503.0990529060364,2513.1162687778474,None,None,None,./data/Subject_00/Session_00/Exp_data/2020_Jul_01_1255/rec_QA_run_02_block_000_trial_024.wav,00,00,,A1,False,False,False,False,False,False,False,True,False,True,True,No,No,No,No,No,No,2020_Jul_01_1255,nibs_stage_1,3.2.3,60.04094054459514,
2,0,2,0,0,0,0,0,,,,,,,,,,,,,,,,,,,,,00,00,,A1,False,False,False,False,False,False,False,True,False,True,True,No,No,No,No,No,No,2020_Jul_01_1255,nibs_stage_1,3.2.3,60.04094054459514,
2,0,2,0,1,0,1,0,0,0,0,0,Listen to the question and speak out your answer!,2518.567398786545,None,2518.539219903946,2520.5666189193726,"Bitte öffnen Sie das Fenster, um frische Luft hereinzulassen.",öffnen,2519.949958705902,None,2524.116747760773,None,None,None,None,None,./data/Subject_00/Session_00/Exp_data/2020_Jul_01_1255/rec_QA_run_02_block_001_trial_000.wav,00,00,,A1,False,False,False,False,False,False,False,True,False,True,True,No,No,No,No,No,No,2020_Jul_01_1255,nibs_stage_1,3.2.3,60.04094054459514,
2,0,2,0,1,0,1,0,1,0,1,0,Listen to the question and speak out your answer!,2536.5690219402313,None,2536.55390996933,2538.6008429527283,"Er ist ein ehrlicher Mann, der nie lügt.",lügt,2537.951202774048,None,2540.7177115917207,2541.734330892563,2553.1516927719117,None,None,None,./data/Subject_00/Session_00/Exp_data/2020_Jul_01_1255/rec_QA_run_02_block_001_trial_001.wav,00,00,,A1,False,False,False,False,False,False,False,True,False,True,True,No,No,No,No,No,No,2020_Jul_01_1255,nibs_stage_1,3.2.3,60.04094054459514,
2,0,2,0,1,0,1,0,2,0,2,0,Listen to the question and speak out your answer!,2556.568943977356,None,2556.5550059795382,2558.6019208431244,Er antwortete schnell auf meine Frage.,antwortete,2557.9519547462464,None,2560.7854455947877,2561.80207490921,2573.152843618393,2574.16943693161,None,None,./data/Subject_00/Session_00/Exp_data/2020_Jul_01_1255/rec_QA_run_02_block_001_trial_002.wav,00,00,,A1,False,False,False,False,False,False,False,True,False,True,True,No,No,No,No,No,No,2020_Jul_01_1255,nibs_stage_1,3.2.3,60.04094054459514,
2,0,2,0,1,0,1,0,3,0,3,0,Listen to the question and speak out your answer!,2576.5702109336853,None,2576.539308357239,2578.569659948349,Rom wurde nicht an einem Tag erbaut.,erbaut,2577.9529856681825,2580.3030869960785,2580.6864775657655,None,2593.1537755966187,None,None,None,./data/Subject_00/Session_00/Exp_data/2020_Jul_01_1255/rec_QA_run_02_block_001_trial_003.wav,00,00,,A1,False,False,False,False,False,False,False,True,False,True,True,No,No,No,No,No,No,2020_Jul_01_1255,nibs_stage_1,3.2.3,60.04094054459514,
2,0,2,0,1,0,1,0,4,0,4,0,Listen to the question and speak out your answer!,2596.570678949356,None,2596.5403192520143,2598.570702791214,Korn wird zur Herstellung von Mehl verwendet.,verwendet,2597.9542867183686,2600.737643957138,2601.1208626270295,None,2613.1548367977143,None,None,None,./data/Subject_00/Session_00/Exp_data/2020_Jul_01_1255/rec_QA_run_02_block_001_trial_004.wav,00,00,,A1,False,False,False,False,False,False,False,True,False,True,True,No,No,No,No,No,No,2020_Jul_01_1255,nibs_stage_1,3.2.3,60.04094054459514,
2,0,2,0,1,0,1,0,5,0,5,0,Listen to the question and speak out your answer!,2616.572340965271,None,2616.5414293289186,2618.571888923645,Die Eltern haben das Geburtstagsgeschenk ihrer Tochter eingepackt.,eingepackt,2617.955084705353,2621.9054539203644,2622.2886716365815,2623.305359840393,2633.1565557956696,None,None,None,./data/Subject_00/Session_00/Exp_data/2020_Jul_01_1255/rec_QA_run_02_block_001_trial_005.wav,00,00,,A1,False,False,False,False,False,False,False,True,False,True,True,No,No,No,No,No,No,2020_Jul_01_1255,nibs_stage_1,3.2.3,60.04094054459514,
2,0,2,0,1,0,1,0,6,0,6,0,Listen to the question and speak out your answer!,2636.5569949150085,None,2636.525988483429,2638.5561258792877,Dort an der Ampel kannst du die Straße überqueren.,überqueren,2637.906193637848,2640.922989845276,2641.3063017368318,None,2653.1072145938874,None,2654.523896932602,None,./data/Subject_00/Session_00/Exp_data/2020_Jul_01_1255/rec_QA_run_02_block_001_trial_006.wav,00,00,,A1,False,False,False,False,False,False,False,True,False,True,True,No,No,No,No,No,No,2020_Jul_01_1255,nibs_stage_1,3.2.3,60.04094054459514,
2,0,2,0,1,0,1,0,7,0,7,0,Listen to the question and speak out your answer!,2656.59042096138,None,2656.5604162693026,2658.591148853302,"Manchmal glaube ich, ich bin zu pessimistisch.",glaube,2657.9409317016602,None,2661.340923690796,None,2673.14156665802,2674.15815782547,None,None,./data/Subject_00/Session_00/Exp_data/2020_Jul_01_1255/rec_QA_run_02_block_001_trial_007.wav,00,00,,A1,False,False,False,False,False,False,False,True,False,True,True,No,No,No,No,No,No,2020_Jul_01_1255,nibs_stage_1,3.2.3,60.04094054459514,
2,0,2,0,1,0,1,0,8,0,8,0,Listen to the question and speak out your answer!,2676.6082108020782,None,2676.578137111664,2678.6085209846497,Der Schmied klopft immer wieder mit dem Hammer auf das heiße Eisen.,klopft,2677.958468580246,2681.5753059387207,2681.958700799942,2682.975718975067,2693.1590997219087,None,None,None,./data/Subject_00/Session_00/Exp_data/2020_Jul_01_1255/rec_QA_run_02_block_001_trial_008.wav,00,00,,A1,False,False,False,False,False,False,False,True,False,True,True,No,No,No,No,No,No,2020_Jul_01_1255,nibs_stage_1,3.2.3,60.04094054459514,
2,0,2,0,1,0,1,0,9,0,9,0,Listen to the question and speak out your answer!,2696.5764768123627,None,2696.545662212372,2698.5759439468384,In den großen Ferien wandern wir gerne in den Bergen.,wandern,2697.9593435764314,None,2701.659468793869,None,2713.160163784027,2714.1770238876343,None,None,./data/Subject_00/Session_00/Exp_data/2020_Jul_01_1255/rec_QA_run_02_block_001_trial_009.wav,00,00,,A1,False,False,False,False,False,False,False,True,False,True,True,No,No,No,No,No,No,2020_Jul_01_1255,nibs_stage_1,3.2.3,60.04094054459514,
2,0,2,0,1,0,1,0,10,0,10,0,Listen to the question and speak out your answer!,2716.577437877655,None,2716.5466361522676,2718.5769848823547,Die Wissenschaftler aus der Physik heißen Physiker.,heißen,2717.9603137016297,2721.1772179603577,2721.5605095863343,None,2733.1611236572267,2734.1778948307037,None,None,./data/Subject_00/Session_00/Exp_data/2020_Jul_01_1255/rec_QA_run_02_block_001_trial_010.wav,00,00,,A1,False,False,False,False,False,False,False,True,False,True,True,No,No,No,No,No,No,2020_Jul_01_1255,nibs_stage_1,3.2.3,60.04094054459514,
2,0,2,0,1,0,1,0,11,0,11,0,Listen to the question and speak out your answer!,2736.5786798000336,None,2736.564361047745,2738.611457824707,Marco hat gestern einen Brief an seine Eltern geschrieben.,geschrieben,2737.961442613602,2741.3116869926453,2741.6949686050416,None,2753.162140750885,None,None,None,./data/Subject_00/Session_00/Exp_data/2020_Jul_01_1255/rec_QA_run_02_block_001_trial_011.wav,00,00,,A1,False,False,False,False,False,False,False,True,False,True,True,No,No,No,No,No,No,2020_Jul_01_1255,nibs_stage_1,3.2.3,60.04094054459514,
2,0,2,0,1,0,1,0,12,0,12,0,Listen to the question and speak out your answer!,2756.5792348384857,None,2756.5487342357637,2758.5792620182037,"Entschuldigung, können Sie mir ein Taxi rufen?",rufen,2757.962487602234,None,2761.1293655872346,2762.1462399959564,2773.163388633728,None,None,None,./data/Subject_00/Session_00/Exp_data/2020_Jul_01_1255/rec_QA_run_02_block_001_trial_012.wav,00,00,,A1,False,False,False,False,False,False,False,True,False,True,True,No,No,No,No,No,No,2020_Jul_01_1255,nibs_stage_1,3.2.3,60.04094054459514,
2,0,2,0,1,0,1,0,13,0,13,0,Listen to the question and speak out your answer!,2776.564970970154,None,2776.533259534836,2778.563457965851,Bitte bilden Sie einfache Sätze.,bilden,2777.946883583069,None,2780.4803406238557,None,2793.147657775879,None,None,None,./data/Subject_00/Session_00/Exp_data/2020_Jul_01_1255/rec_QA_run_02_block_001_trial_013.wav,00,00,,A1,False,False,False,False,False,False,False,True,False,True,True,No,No,No,No,No,No,2020_Jul_01_1255,nibs_stage_1,3.2.3,60.04094054459514,
2,0,2,0,1,0,1,0,14,0,14,0,Listen to the question and speak out your answer!,2796.564476966858,None,2796.534171152115,2798.564500808716,"Ich muss das Buch zurückgeben, das mir ein Freund geliehen hat.",geliehen,2797.9145115852357,2801.598014831543,2802.0148006916047,2803.03142786026,2813.1152016162873,2814.1319789886475,None,None,./data/Subject_00/Session_00/Exp_data/2020_Jul_01_1255/rec_QA_run_02_block_001_trial_014.wav,00,00,,A1,False,False,False,False,False,False,False,True,False,True,True,No,No,No,No,No,No,2020_Jul_01_1255,nibs_stage_1,3.2.3,60.04094054459514,
2,0,2,0,1,0,1,0,15,0,15,0,Listen to the question and speak out your answer!,2816.56569981575,None,2816.5351932525637,2818.5656609535217,"Nach einem Match hat sie keine Stimme mehr,  weil sie so laut schreit.",schreit,2817.9490996837617,None,2822.18248667717,None,2833.149690771103,2834.166366815567,None,None,./data/Subject_00/Session_00/Exp_data/2020_Jul_01_1255/rec_QA_run_02_block_001_trial_015.wav,00,00,,A1,False,False,False,False,False,False,False,True,False,True,True,No,No,No,No,No,No,2020_Jul_01_1255,nibs_stage_1,3.2.3,60.04094054459514,
2,0,2,0,1,0,1,0,16,0,16,0,Listen to the question and speak out your answer!,2836.566962003708,None,2836.552914094925,2838.599928855896,Das Auto hatte die Grenze passiert.,passiert,2837.9499246120454,2840.2333629131317,2840.583395624161,2841.6000080108643,2853.1507207393647,None,None,None,./data/Subject_00/Session_00/Exp_data/2020_Jul_01_1255/rec_QA_run_02_block_001_trial_016.wav,00,00,,A1,False,False,False,False,False,False,False,True,False,True,True,No,No,No,No,No,No,2020_Jul_01_1255,nibs_stage_1,3.2.3,60.04094054459514,
2,0,2,0,1,0,1,0,17,0,17,0,Listen to the question and speak out your answer!,2856.567633867264,None,2856.53729634285,2858.5676448345184,Sie beantwortete meine E-Mail schnell.,beantwortete,2857.917551660538,None,2860.7510217666627,None,2873.1183947563172,None,None,None,./data/Subject_00/Session_00/Exp_data/2020_Jul_01_1255/rec_QA_run_02_block_001_trial_017.wav,00,00,,A1,False,False,False,False,False,False,False,True,False,True,True,No,No,No,No,No,No,2020_Jul_01_1255,nibs_stage_1,3.2.3,60.04094054459514,
2,0,2,0,1,0,1,0,18,0,18,0,Listen to the question and speak out your answer!,2876.569233894348,None,2876.55501408577,2878.6020069122314,"Wir entschieden uns dafür, mit dem Flugzeug nach Stockholm zu fliegen.",fliegen,2877.9520067214967,2882.2022228240967,2882.552262687683,2883.568951845169,2893.1194907665254,2894.1361680030823,None,None,./data/Subject_00/Session_00/Exp_data/2020_Jul_01_1255/rec_QA_run_02_block_001_trial_018.wav,00,00,,A1,False,False,False,False,False,False,False,True,False,True,True,No,No,No,No,No,No,2020_Jul_01_1255,nibs_stage_1,3.2.3,60.04094054459514,
2,0,2,0,1,0,1,0,19,0,19,0,Listen to the question and speak out your answer!,2896.570715904236,None,2896.5560700416568,2898.6030848026276,Ich kann endlich den Namen dieser französischen Stadt aussprechen.,aussprechen,2897.9530557632447,2901.569897890091,2901.953287744522,None,2913.153861665726,None,None,None,./data/Subject_00/Session_00/Exp_data/2020_Jul_01_1255/rec_QA_run_02_block_001_trial_019.wav,00,00,,A1,False,False,False,False,False,False,False,True,False,True,True,No,No,No,No,No,No,2020_Jul_01_1255,nibs_stage_1,3.2.3,60.04094054459514,
2,0,2,0,1,0,1,0,20,0,20,0,Listen to the question and speak out your answer!,2916.5711917877197,None,2916.540414142609,2918.5714859962463,Mein Sohn wurde letztes Jahr geboren.,geboren,2917.9540885925294,None,2920.6875735759736,2921.7043499946594,2933.155127668381,2934.1721148490906,None,None,./data/Subject_00/Session_00/Exp_data/2020_Jul_01_1255/rec_QA_run_02_block_001_trial_020.wav,00,00,,A1,False,False,False,False,False,False,False,True,False,True,True,No,No,No,No,No,No,2020_Jul_01_1255,nibs_stage_1,3.2.3,60.04094054459514,
2,0,2,0,1,0,1,0,21,0,21,0,Listen to the question and speak out your answer!,2936.5726249217987,None,2936.541677284241,2938.5718579292297,"Er bevorzugt die Farben gelb, orange und rot.",bevorzugt,2937.922053718567,None,2941.4552587509156,None,2953.1228677272798,2954.139532804489,None,None,./data/Subject_00/Session_00/Exp_data/2020_Jul_01_1255/rec_QA_run_02_block_001_trial_021.wav,00,00,,A1,False,False,False,False,False,False,False,True,False,True,True,No,No,No,No,No,No,2020_Jul_01_1255,nibs_stage_1,3.2.3,60.04094054459514,
2,0,2,0,1,0,1,0,22,0,22,0,Listen to the question and speak out your answer!,2956.573287010193,None,2956.542780208588,2958.573112010956,Am Geburtstag hat mein Vater mir einen Geschenk geschenkt.,geschenkt,2957.9234146118165,None,2961.6565655708314,2962.673518896103,2973.1240326404572,None,None,None,./data/Subject_00/Session_00/Exp_data/2020_Jul_01_1255/rec_QA_run_02_block_001_trial_022.wav,00,00,,A1,False,False,False,False,False,False,False,True,False,True,True,No,No,No,No,No,No,2020_Jul_01_1255,nibs_stage_1,3.2.3,60.04094054459514,
2,0,2,0,1,0,1,0,23,0,23,0,Listen to the question and speak out your answer!,2976.5743918418884,None,2976.5438273429872,2978.5741698741913,Das Schloss liegt innerhalb der Stadtmauern.,liegt,2977.9575387477876,2980.374034881592,2980.757722759247,None,2993.1583746910096,2994.174775838852,None,None,./data/Subject_00/Session_00/Exp_data/2020_Jul_01_1255/rec_QA_run_02_block_001_trial_023.wav,00,00,,A1,False,False,False,False,False,False,False,True,False,True,True,No,No,No,No,No,No,2020_Jul_01_1255,nibs_stage_1,3.2.3,60.04094054459514,
2,0,2,0,1,0,1,0,24,0,24,0,Listen to the question and speak out your answer!,2996.5759239196777,None,2996.5614060878756,2998.608438014984,In wenigen Minuten erreichen wir Hamburg.,erreichen,2997.9585346221925,None,3001.125465774536,None,3013.1591626644135,None,None,None,./data/Subject_00/Session_00/Exp_data/2020_Jul_01_1255/rec_QA_run_02_block_001_trial_024.wav,00,00,,A1,False,False,False,False,False,False,False,True,False,True,True,No,No,No,No,No,No,2020_Jul_01_1255,nibs_stage_1,3.2.3,60.04094054459514,
2,0,2,0,1,0,1,0,,,,,,,,,,,,,,,,,,,,,00,00,,A1,False,False,False,False,False,False,False,True,False,True,True,No,No,No,No,No,No,2020_Jul_01_1255,nibs_stage_1,3.2.3,60.04094054459514,
2,0,2,0,,,,,,,,,,,,,,,,,,,,,,,,,00,00,,A1,False,False,False,False,False,False,False,True,False,True,True,No,No,No,No,No,No,2020_Jul_01_1255,nibs_stage_1,3.2.3,60.04094054459514,
3,0,3,0,0,0,0,0,0,0,0,0,Listen to the question and speak out your answer!,3023.5936708450317,None,3023.5566974163057,3025.5931618213654,"Das Messer ist so stumpf, dass wir nicht mehr brauchen.",brauchen,3024.9764787197114,None,3028.4099875926972,None,None,None,None,None,./data/Subject_00/Session_00/Exp_data/2020_Jul_01_1255/rec_QA_run_03_block_000_trial_000.wav,00,00,,A1,False,False,False,False,False,False,False,True,False,True,True,No,No,No,No,No,No,2020_Jul_01_1255,nibs_stage_1,3.2.3,60.04094054459514,
3,0,3,0,0,0,0,0,1,0,1,0,Listen to the question and speak out your answer!,3036.5938308238983,None,3036.563546228409,3038.5941050052643,Die Abgase der Benzinmotoren werden die Luft verschmutzen.,verschmutzen,3037.97724070549,None,3041.9440616607667,3042.9608359336853,3053.177989625931,None,None,None,./data/Subject_00/Session_00/Exp_data/2020_Jul_01_1255/rec_QA_run_03_block_000_trial_001.wav,00,00,,A1,False,False,False,False,False,False,False,True,False,True,True,No,No,No,No,No,No,2020_Jul_01_1255,nibs_stage_1,3.2.3,60.04094054459514,
3,0,3,0,0,0,0,0,2,0,2,0,Listen to the question and speak out your answer!,3056.59480881691,None,3056.5647082805635,3058.5950779914856,Ich gratuliere dir zum Bestehen dieser schwierigen Prüfung.,gratuliere,3057.9449047088624,None,3061.8119696617127,None,3073.1457416057588,None,None,None,./data/Subject_00/Session_00/Exp_data/2020_Jul_01_1255/rec_QA_run_03_block_000_trial_002.wav,00,00,,A1,False,False,False,False,False,False,False,True,False,True,True,No,No,No,No,No,No,2020_Jul_01_1255,nibs_stage_1,3.2.3,60.04094054459514,
3,0,3,0,0,0,0,0,3,0,3,0,Listen to the question and speak out your answer!,3076.56263589859,None,3076.532291221619,3078.5627830028534,Alex duscht morgens gerne im Badezimmer.,duscht,3077.912970685959,None,3080.912889623642,None,3093.113458776474,None,None,None,./data/Subject_00/Session_00/Exp_data/2020_Jul_01_1255/rec_QA_run_03_block_000_trial_003.wav,00,00,,A1,False,False,False,False,False,False,False,True,False,True,True,No,No,No,No,No,No,2020_Jul_01_1255,nibs_stage_1,3.2.3,60.04094054459514,
3,0,3,0,0,0,0,0,4,0,4,0,Listen to the question and speak out your answer!,3096.5803639888763,None,3096.550317001343,3098.5803170204163,Am Anfang sind die Brüder Wright mit Gleitflugzeugen geflogen.,geflogen,3097.93036570549,3101.547213792801,3101.963928604126,None,3113.131583595276,None,None,None,./data/Subject_00/Session_00/Exp_data/2020_Jul_01_1255/rec_QA_run_03_block_000_trial_004.wav,00,00,,A1,False,False,False,False,False,False,False,True,False,True,True,No,No,No,No,No,No,2020_Jul_01_1255,nibs_stage_1,3.2.3,60.04094054459514,
3,0,3,0,0,0,0,0,5,0,5,0,Listen to the question and speak out your answer!,3116.581375837326,None,3116.5511141300203,3118.581470012665,Das Radio informiert Autofahrer über Staus.,informiert,3117.9314617156983,None,3121.46489777565,None,3133.132274770737,None,None,None,./data/Subject_00/Session_00/Exp_data/2020_Jul_01_1255/rec_QA_run_03_block_000_trial_005.wav,00,00,,A1,False,False,False,False,False,False,False,True,False,True,True,No,No,No,No,No,No,2020_Jul_01_1255,nibs_stage_1,3.2.3,60.04094054459514,
3,0,3,0,0,0,0,0,6,0,6,0,Listen to the question and speak out your answer!,3136.5827028751373,None,3136.5688640594485,3138.6159269809723,Der Weg führt durch den Wald.,führt,3137.965927743912,None,3140.132650756836,None,3153.166686677933,None,None,None,./data/Subject_00/Session_00/Exp_data/2020_Jul_01_1255/rec_QA_run_03_block_000_trial_006.wav,00,00,,A1,False,False,False,False,False,False,False,True,False,True,True,No,No,No,No,No,No,2020_Jul_01_1255,nibs_stage_1,3.2.3,60.04094054459514,
3,0,3,0,0,0,0,0,7,0,7,0,Listen to the question and speak out your answer!,3156.583608865738,None,3156.553269195557,3158.5835390090942,"Sie scheinen nicht zu wissen, mit wem Sie es zu tun haben.",scheinen,3157.9336277484895,3161.3837609291077,3161.8005777835847,None,3173.1344796657563,None,None,None,./data/Subject_00/Session_00/Exp_data/2020_Jul_01_1255/rec_QA_run_03_block_000_trial_007.wav,00,00,,A1,False,False,False,False,False,False,False,True,False,True,True,No,No,No,No,No,No,2020_Jul_01_1255,nibs_stage_1,3.2.3,60.04094054459514,
3,0,3,0,0,0,0,0,8,0,8,0,Listen to the question and speak out your answer!,3176.5846219062805,None,3176.5543241977693,3178.5846829414368,Ein Fußball Team besteht aus zehn Spielern und einem Tormann.,besteht,3177.9681347846986,3181.8184158802032,3182.201611661911,None,3193.168711566925,3194.1855149269104,None,None,./data/Subject_00/Session_00/Exp_data/2020_Jul_01_1255/rec_QA_run_03_block_000_trial_008.wav,00,00,,A1,False,False,False,False,False,False,False,True,False,True,True,No,No,No,No,No,No,2020_Jul_01_1255,nibs_stage_1,3.2.3,60.04094054459514,
3,0,3,0,0,0,0,0,9,0,9,0,Listen to the question and speak out your answer!,3196.5695929527283,None,3196.5388523578645,3198.5690789222717,Im Frühling besuchen viele Touristen unserer Hauptstadt.,besuchen,3197.9190765857697,None,3201.9192856788636,None,3213.120102787018,3214.1366209983826,None,None,./data/Subject_00/Session_00/Exp_data/2020_Jul_01_1255/rec_QA_run_03_block_000_trial_009.wav,00,00,,A1,False,False,False,False,False,False,False,True,False,True,True,No,No,No,No,No,No,2020_Jul_01_1255,nibs_stage_1,3.2.3,60.04094054459514,
3,0,3,0,0,0,0,0,10,0,10,0,Listen to the question and speak out your answer!,3216.5705909729004,None,3216.556571912766,3218.6034939289093,"Leichte Sprache ist eine Hilfe für Menschen , die keine schwierige Sprache verstehen.",verstehen,3217.9535426139832,None,3223.354056739807,None,3233.154782676697,None,None,None,./data/Subject_00/Session_00/Exp_data/2020_Jul_01_1255/rec_QA_run_03_block_000_trial_010.wav,00,00,,A1,False,False,False,False,False,False,False,True,False,True,True,No,No,No,No,No,No,2020_Jul_01_1255,nibs_stage_1,3.2.3,60.04094054459514,
3,0,3,0,0,0,0,0,11,0,11,0,Listen to the question and speak out your answer!,3236.554925918579,None,3236.5247844696046,3238.55454993248,Auf Lavaerde wachsen sehr gute Weintrauben.,wachsen,3237.90456571579,None,3241.4714077949525,None,3253.105511569977,None,3254.522664785385,None,./data/Subject_00/Session_00/Exp_data/2020_Jul_01_1255/rec_QA_run_03_block_000_trial_011.wav,00,00,,A1,False,False,False,False,False,False,False,True,False,True,True,No,No,No,No,No,No,2020_Jul_01_1255,nibs_stage_1,3.2.3,60.04094054459514,
3,0,3,0,0,0,0,0,12,0,12,0,Listen to the question and speak out your answer!,3256.5897178649902,None,3256.5591841220858,3258.5891728401184,"Zu den hundeartigen Tieren, die in Österreich leben, gehört der Wolf.",gehört,3257.9725367069245,None,3262.7728046417237,None,3273.1733347415925,None,None,None,./data/Subject_00/Session_00/Exp_data/2020_Jul_01_1255/rec_QA_run_03_block_000_trial_012.wav,00,00,,A1,False,False,False,False,False,False,False,True,False,True,True,No,No,No,No,No,No,2020_Jul_01_1255,nibs_stage_1,3.2.3,60.04094054459514,
3,0,3,0,0,0,0,0,13,0,13,0,Listen to the question and speak out your answer!,3276.591507911682,None,3276.5599012851717,3278.590015888214,"Oma hat Probleme mit den Zähnen, aber sie fürchtet sich vorm Zahnarzt.",fürchtet,3277.940017604828,None,3282.9736877918244,None,3293.1409217357636,None,None,None,./data/Subject_00/Session_00/Exp_data/2020_Jul_01_1255/rec_QA_run_03_block_000_trial_013.wav,00,00,,A1,False,False,False,False,False,False,False,True,False,True,True,No,No,No,No,No,No,2020_Jul_01_1255,nibs_stage_1,3.2.3,60.04094054459514,
3,0,3,0,0,0,0,0,14,0,14,0,Listen to the question and speak out your answer!,3296.5911889076233,None,3296.5607192993166,3298.5910959243774,Meine Oma hat mir Frühstück gekocht.,gekocht,3297.97460975647,None,3300.574561738968,3301.5912458896637,3313.1752265930177,None,None,None,./data/Subject_00/Session_00/Exp_data/2020_Jul_01_1255/rec_QA_run_03_block_000_trial_014.wav,00,00,,A1,False,False,False,False,False,False,False,True,False,True,True,No,No,No,No,No,No,2020_Jul_01_1255,nibs_stage_1,3.2.3,60.04094054459514,
3,0,3,0,0,0,0,0,15,0,15,0,Listen to the question and speak out your answer!,3316.592623949051,None,3316.5617881298067,3318.5923268795013,"Bitte zieh deinen Mantel an, es ist kalt draußen.",zieh,3317.9754866600038,3321.092379808426,3321.442341709137,None,3333.1430596351624,None,None,None,./data/Subject_00/Session_00/Exp_data/2020_Jul_01_1255/rec_QA_run_03_block_000_trial_015.wav,00,00,,A1,False,False,False,False,False,False,False,True,False,True,True,No,No,No,No,No,No,2020_Jul_01_1255,nibs_stage_1,3.2.3,60.04094054459514,
3,0,3,0,0,0,0,0,16,0,16,0,Listen to the question and speak out your answer!,3336.5937337875366,None,3336.562869358063,3338.5933339595795,"Bevor man ein Haus baut, zeichnet der Architekt einen Plan.",zeichnet,3337.943295621872,3341.560124874115,3341.9768117904664,3342.993455886841,3353.1440316677094,None,None,None,./data/Subject_00/Session_00/Exp_data/2020_Jul_01_1255/rec_QA_run_03_block_000_trial_016.wav,00,00,,A1,False,False,False,False,False,False,False,True,False,True,True,No,No,No,No,No,No,2020_Jul_01_1255,nibs_stage_1,3.2.3,60.04094054459514,
3,0,3,0,0,0,0,0,17,0,17,0,Listen to the question and speak out your answer!,3356.59472990036,None,3356.564001131058,3358.594335794449,"Der Klima Schutz soll verhindern, dass es auf der Erde immer wärmer wird.",verhindern,3357.97763171196,None,3362.5117177009583,None,3373.1784187793733,None,None,None,./data/Subject_00/Session_00/Exp_data/2020_Jul_01_1255/rec_QA_run_03_block_000_trial_017.wav,00,00,,A1,False,False,False,False,False,False,False,True,False,True,True,No,No,No,No,No,No,2020_Jul_01_1255,nibs_stage_1,3.2.3,60.04094054459514,
3,0,3,0,0,0,0,0,18,0,18,0,Listen to the question and speak out your answer!,3376.5952208042145,None,3376.5649922370912,3378.5954070091248,Der Arbeiter repariert eine Panne.,repariert,3377.979060792923,3380.328779935837,3380.6788977622987,None,3393.17965259552,3394.196177005768,None,None,./data/Subject_00/Session_00/Exp_data/2020_Jul_01_1255/rec_QA_run_03_block_000_trial_018.wav,00,00,,A1,False,False,False,False,False,False,False,True,False,True,True,No,No,No,No,No,No,2020_Jul_01_1255,nibs_stage_1,3.2.3,60.04094054459514,
3,0,3,0,0,0,0,0,19,0,19,0,Listen to the question and speak out your answer!,3396.5463190078735,None,3396.51602640152,3398.5464057922363,Du musst die Verantwortung für deine Taten übernehmen.,übernehmen,3397.8963157176972,3400.913139820099,3401.296580696106,None,3413.0972076892854,None,3414.5138399600983,None,./data/Subject_00/Session_00/Exp_data/2020_Jul_01_1255/rec_QA_run_03_block_000_trial_019.wav,00,00,,A1,False,False,False,False,False,False,False,True,False,True,True,No,No,No,No,No,No,2020_Jul_01_1255,nibs_stage_1,3.2.3,60.04094054459514,
3,0,3,0,0,0,0,0,20,0,20,0,Listen to the question and speak out your answer!,3416.5806818008423,None,3416.550359296799,3418.5808169841766,Jede Nacht muss ich den Kindern ein Märchen erzählen.,erzählen,3417.96413269043,None,3421.364330673218,None,3433.1649466991425,None,None,None,./data/Subject_00/Session_00/Exp_data/2020_Jul_01_1255/rec_QA_run_03_block_000_trial_020.wav,00,00,,A1,False,False,False,False,False,False,False,True,False,True,True,No,No,No,No,No,No,2020_Jul_01_1255,nibs_stage_1,3.2.3,60.04094054459514,
3,0,3,0,0,0,0,0,21,0,21,0,Listen to the question and speak out your answer!,3436.5823788642883,None,3436.5515122890474,3438.581869840622,Die Katzen jagen Mäuse.,jagen,3437.9317857265473,None,3440.1319808006288,None,3453.132671737671,None,None,None,./data/Subject_00/Session_00/Exp_data/2020_Jul_01_1255/rec_QA_run_03_block_000_trial_021.wav,00,00,,A1,False,False,False,False,False,False,False,True,False,True,True,No,No,No,No,No,No,2020_Jul_01_1255,nibs_stage_1,3.2.3,60.04094054459514,
3,0,3,0,0,0,0,0,22,0,22,0,Listen to the question and speak out your answer!,3456.5995869636536,None,3456.5693110942843,3458.5997099876404,Sie schulden mir noch Geld von gestern.,schulden,3457.9495336055757,3460.2664318084717,3460.6830107212068,None,3473.1503876686097,None,None,None,./data/Subject_00/Session_00/Exp_data/2020_Jul_01_1255/rec_QA_run_03_block_000_trial_022.wav,00,00,,A1,False,False,False,False,False,False,False,True,False,True,True,No,No,No,No,No,No,2020_Jul_01_1255,nibs_stage_1,3.2.3,60.04094054459514,
3,0,3,0,0,0,0,0,23,0,23,0,Listen to the question and speak out your answer!,3476.5678708553314,None,3476.536954212189,3478.5673220157623,Der Lehrer unterrichtet Schüler und bringt ihnen verschiedene Dinge bei.,unterrichtet,3477.950613641739,None,3482.3842257499696,None,3493.151523733139,3494.168251991272,None,None,./data/Subject_00/Session_00/Exp_data/2020_Jul_01_1255/rec_QA_run_03_block_000_trial_023.wav,00,00,,A1,False,False,False,False,False,False,False,True,False,True,True,No,No,No,No,No,No,2020_Jul_01_1255,nibs_stage_1,3.2.3,60.04094054459514,
3,0,3,0,0,0,0,0,24,0,24,0,Listen to the question and speak out your answer!,3496.5683648586273,None,3496.5380232810976,3498.5683829784393,Der Mitarbeiter wurde für seinen Fleiß und seine harte Arbeit belohnt.,belohnt,3497.918384695053,None,3502.385259771347,3503.401965856552,3513.119181776047,None,None,None,./data/Subject_00/Session_00/Exp_data/2020_Jul_01_1255/rec_QA_run_03_block_000_trial_024.wav,00,00,,A1,False,False,False,False,False,False,False,True,False,True,True,No,No,No,No,No,No,2020_Jul_01_1255,nibs_stage_1,3.2.3,60.04094054459514,
3,0,3,0,0,0,0,0,,,,,,,,,,,,,,,,,,,,,00,00,,A1,False,False,False,False,False,False,False,True,False,True,True,No,No,No,No,No,No,2020_Jul_01_1255,nibs_stage_1,3.2.3,60.04094054459514,
3,0,3,0,1,0,1,0,0,0,0,0,Listen to the question and speak out your answer!,3518.5695638656616,None,3518.542250919342,3520.569568872452,Im Sommer gehen Alice und Tom gerne in die Bäder schwimmen.,schwimmen,3519.952890777588,None,3523.719755792618,3524.7364478111267,None,None,None,None,./data/Subject_00/Session_00/Exp_data/2020_Jul_01_1255/rec_QA_run_03_block_001_trial_000.wav,00,00,,A1,False,False,False,False,False,False,False,True,False,True,True,No,No,No,No,No,No,2020_Jul_01_1255,nibs_stage_1,3.2.3,60.04094054459514,
3,0,3,0,1,0,1,0,1,0,1,0,Listen to the question and speak out your answer!,3536.5712928771973,None,3536.540255355835,3538.570508956909,"Er ist zu schwach, um eine Firma zu führen.",führen,3537.9538516044618,3540.770635843277,3541.1540106773377,None,3553.1553777694703,None,None,None,./data/Subject_00/Session_00/Exp_data/2020_Jul_01_1255/rec_QA_run_03_block_001_trial_001.wav,00,00,,A1,False,False,False,False,False,False,False,True,False,True,True,No,No,No,No,No,No,2020_Jul_01_1255,nibs_stage_1,3.2.3,60.04094054459514,
3,0,3,0,1,0,1,0,2,0,2,0,Listen to the question and speak out your answer!,3556.5882618427277,None,3556.558292102814,3558.5884788036346,"Ich habe eine verletzte Hand, kannst du bitte die Knöpfe meiner Jacke öffnen?",öffnen,3557.938769721985,3562.1893289089203,3562.6060446739198,None,3573.139274740219,None,None,None,./data/Subject_00/Session_00/Exp_data/2020_Jul_01_1255/rec_QA_run_03_block_001_trial_002.wav,00,00,,A1,False,False,False,False,False,False,False,True,False,True,True,No,No,No,No,No,No,2020_Jul_01_1255,nibs_stage_1,3.2.3,60.04094054459514,
3,0,3,0,1,0,1,0,3,0,3,0,Listen to the question and speak out your answer!,3576.5904598236084,None,3576.5589311599733,3578.590147972107,Das Eingreifen des Lehrers beendete den Kampf  der Schüler.,beendete,3577.9728087425233,3581.589455842972,3581.972930574417,None,3593.1735097408296,3594.190123796463,None,None,./data/Subject_00/Session_00/Exp_data/2020_Jul_01_1255/rec_QA_run_03_block_001_trial_003.wav,00,00,,A1,False,False,False,False,False,False,False,True,False,True,True,No,No,No,No,No,No,2020_Jul_01_1255,nibs_stage_1,3.2.3,60.04094054459514,
3,0,3,0,1,0,1,0,4,0,4,0,Listen to the question and speak out your answer!,3596.591161966324,None,3596.560044336319,3598.5903599262238,Die Uhr kann den zwölf Stunden Rhythmus zeigen.,zeigen,3597.9740246772767,None,3601.0738376617433,None,3613.1746036052705,None,None,None,./data/Subject_00/Session_00/Exp_data/2020_Jul_01_1255/rec_QA_run_03_block_001_trial_004.wav,00,00,,A1,False,False,False,False,False,False,False,True,False,True,True,No,No,No,No,No,No,2020_Jul_01_1255,nibs_stage_1,3.2.3,60.04094054459514,
3,0,3,0,1,0,1,0,5,0,5,0,Listen to the question and speak out your answer!,3616.5919330120087,None,3616.5611141204836,3618.5914227962494,Lenas Hund Tobi wird immer am Abend gefüttert.,gefüttert,3617.9748126506806,None,3621.3083247184754,None,3633.1755715847016,None,None,None,./data/Subject_00/Session_00/Exp_data/2020_Jul_01_1255/rec_QA_run_03_block_001_trial_005.wav,00,00,,A1,False,False,False,False,False,False,False,True,False,True,True,No,No,No,No,No,No,2020_Jul_01_1255,nibs_stage_1,3.2.3,60.04094054459514,
3,0,3,0,1,0,1,0,6,0,6,0,Listen to the question and speak out your answer!,3636.5930359363556,None,3636.5621161937715,3638.5924739837646,Der Läufer hat seine Konkurrenten mühelos geschlagen.,geschlagen,3637.942574644089,None,3641.4760657787324,3642.4926569461823,3653.1432696819306,None,None,None,./data/Subject_00/Session_00/Exp_data/2020_Jul_01_1255/rec_QA_run_03_block_001_trial_006.wav,00,00,,A1,False,False,False,False,False,False,False,True,False,True,True,No,No,No,No,No,No,2020_Jul_01_1255,nibs_stage_1,3.2.3,60.04094054459514,
3,0,3,0,1,0,1,0,7,0,7,0,Listen to the question and speak out your answer!,3656.576819896698,None,3656.5465504169465,3658.576910018921,Im Mittelalter öffnete das erste Kaufhaus in Europa.,öffnete,3657.926856660843,None,3661.9270726680757,None,3673.1276656627656,None,None,None,./data/Subject_00/Session_00/Exp_data/2020_Jul_01_1255/rec_QA_run_03_block_001_trial_007.wav,00,00,,A1,False,False,False,False,False,False,False,True,False,True,True,No,No,No,No,No,No,2020_Jul_01_1255,nibs_stage_1,3.2.3,60.04094054459514,
