artifact_trial.thisRepN,artifact_trial.thisTrialN,artifact_trial.thisN,artifact_trial.thisIndex,run.thisRepN,run.thisTrialN,run.thisN,run.thisIndex,QA_block.thisRepN,QA_block.thisTrialN,QA_block.thisN,QA_block.thisIndex,QA_trial.thisRepN,QA_trial.thisTrialN,QA_trial.thisN,QA_trial.thisIndex,Artifact_intro_title.started,Artifact_intro_title.stopped,Artifact_intro_text.text,Artifact_intro_text.started,Artifact_intro_text.stopped,Artifact_intro_audio.started,Artifact_intro_audio.stopped,Artifact_intro_cont.started,Artifact_intro_cont.stopped,Artifact_rec_text.text,Artifact_rec_text.started,Artifact_rec_text.stopped,Artifact_rec_beep_hint.started,Artifact_rec_beep_hint.stopped,Artifact_rec_action.started,Artifact_rec_action.stopped,Artifact_rec_beep_start.started,Artifact_rec_beep_start.stopped,Artifact_rec_recording.started,Artifact_rec_recording.stopped,Artifact_rec_beep_end.started,Artifact_rec_beep_end.stopped,Artifact_rec_break.started,Artifact_rec_break.stopped,participant,session,First language,German level,Full_screen,Instruction,Intro,Artifact,Cali_pre,Fade_in_out,Resting_State,QA,Pause,Cali_post,End,Breakpoint_Cali_pre_trial,Breakpoint_Run,Breakpoint_RS_block,Breakpoint_QA_block,Breakpoint_QA_trial,Breakpoint_Cali_post_trial,date,expName,psychopyVersion,frameRate,
0,0,0,0,,,,,,,,,,,,,99.72861194610596,106.72876191139221,"  - Task: Artifacts collection   
  - Please follow audio instruction              
",99.72861194610596,106.72876191139221,99.7165186882019,None,106.11204791069031,None,,110.24778294563293,None,110.23997206687926,112.24700403213501,111.63015637397766,None,115.0303023815155,None,116.43038353919982,126.4311170578003,126.8310094833374,127.83133292198181,128.2312948703766,129.2313768863678,00,00,,A1,False,False,True,True,False,False,False,False,False,False,True,No,No,No,No,No,No,2020_Jun_28_2023,nibs_stage_1,3.2.3,59.9958518035357,
1,0,1,0,,,,,,,,,,,,,,,,,,,,,,,131.26464796066284,None,131.2427300930023,133.24822402000427,132.6480065345764,None,136.048180437088,137.04842400550842,137.44828042984008,147.44909000396729,147.84893045425414,None,149.24900603294373,150.24922394752502,00,00,,A1,False,False,True,True,False,False,False,False,False,False,True,No,No,No,No,No,No,2020_Jun_28_2023,nibs_stage_1,3.2.3,59.9958518035357,
2,0,2,0,,,,,,,,,,,,,,,,,,,,,,,152.28147387504578,None,152.26057715415953,154.26544404029846,153.64778552055358,None,157.04698238372802,158.04674792289734,158.44829449653625,168.46392703056335,168.84707055091857,None,170.24747395515442,171.24747586250305,00,00,,A1,False,False,True,True,False,False,False,False,False,False,True,No,No,No,No,No,No,2020_Jun_28_2023,nibs_stage_1,3.2.3,59.9958518035357,
3,0,3,0,,,,,,,,,,,,,,,,,,,,,,,173.29783296585083,None,173.27549214363097,175.28119897842407,174.66429743766784,None,178.06451544761657,None,179.46466455459594,189.46513485908508,189.85523042678832,None,191.26532292366028,192.2653238773346,00,00,,A1,False,False,True,True,False,False,False,False,False,False,True,No,No,No,No,No,No,2020_Jun_28_2023,nibs_stage_1,3.2.3,59.9958518035357,
4,0,4,0,,,,,,,,,,,,,,,,,,,,,,,194.2991819381714,None,194.29411525726317,196.29888606071472,195.68886456489562,None,199.08196840286254,None,200.4821165561676,210.48295307159424,210.88969740867614,None,212.28307485580444,213.28313207626343,00,00,,A1,False,False,True,True,False,False,False,False,False,False,True,No,No,No,No,No,No,2020_Jun_28_2023,nibs_stage_1,3.2.3,59.9958518035357,
5,0,5,0,,,,,,,,,,,,,,,,,,,,,,,215.33503007888794,None,215.31185908317565,217.31661105155945,216.71637449264526,None,220.11662850379943,221.11663103103638,221.51647958755493,231.52418494224548,231.91715154647827,None,233.317538022995,234.3175549507141,00,00,,A1,False,False,True,True,False,False,False,False,False,False,True,No,No,No,No,No,No,2020_Jun_28_2023,nibs_stage_1,3.2.3,59.9958518035357,
6,0,6,0,,,,,,,,,,,,,,,,,,,,,,,236.33444690704346,None,236.32890815734862,238.3343620300293,237.7343183517456,None,241.1343964099884,None,242.5345805644989,252.5350420475006,252.93496356010436,None,254.33542108535767,255.33526992797852,00,00,,A1,False,False,True,True,False,False,False,False,False,False,True,No,No,No,No,No,No,2020_Jun_28_2023,nibs_stage_1,3.2.3,59.9958518035357,
7,0,7,0,,,,,,,,,,,,,,,,,,,,,,,257.3698329925537,None,257.346623134613,259.35190892219543,258.7350383758545,261.7355499267578,262.1254845619202,None,263.53550753593447,273.5361268520355,273.93189058303835,274.9361310005188,275.33599400520325,276.3361258506775,00,00,,A1,False,False,True,True,False,False,False,False,False,False,True,No,No,No,No,No,No,2020_Jun_28_2023,nibs_stage_1,3.2.3,59.9958518035357,
8,0,8,0,,,,,,,,,,,,,,,,,,,,,,,278.38726806640625,None,278.36416621208195,280.369971036911,279.7696674823761,282.7701518535614,283.17140851020815,None,284.5763634204865,294.58719396591187,294.97042737007143,None,296.3718500137329,None,00,00,,A1,False,False,True,True,False,False,False,False,False,False,True,No,No,No,No,No,No,2020_Jun_28_2023,nibs_stage_1,3.2.3,59.9958518035357,
9,0,9,0,,,,,,,,,,,,,,,,,,,,,,,299.3883650302887,None,299.3768791675568,301.3875319957733,300.7706514358521,303.7709929943085,304.16134057044985,None,305.57776055336,315.5882480144501,315.95477137565615,None,317.37176394462585,318.3717260360718,00,00,,A1,False,False,True,True,False,False,False,False,False,False,True,No,No,No,No,No,No,2020_Jun_28_2023,nibs_stage_1,3.2.3,59.9958518035357,
10,0,10,0,,,,,,,,,,,,,,,,,,,,,,,320.4064269065857,None,320.38307924270634,322.3886020183563,321.7813354492188,None,325.18840346336367,None,326.58870539665224,336.5901188850403,336.9889584541321,337.9892489910126,338.3892800807953,339.3895170688629,00,00,,A1,False,False,True,True,False,False,False,False,False,False,True,No,No,No,No,No,No,2020_Jun_28_2023,nibs_stage_1,3.2.3,59.9958518035357,
11,0,11,0,,,,,,,,,,,,,,,,,,,,,,,341.41307306289673,None,341.4008702754975,343.40616106987,342.806146478653,None,346.2064875125885,None,347.60639748573305,357.60711693763733,358.0205803871155,None,359.4069800376892,360.40703105926514,00,00,,A1,False,False,True,True,False,False,False,False,False,False,True,No,No,No,No,No,No,2020_Jun_28_2023,nibs_stage_1,3.2.3,59.9958518035357,
12,0,12,0,,,,,,,,,,,,,,,,,,,,,,,362.4422240257263,None,362.4183842658997,364.4240870475769,363.80718955993655,366.80752992630005,367.2074554920197,368.2075939178467,368.60742650032046,378.6083059310913,379.00819144248965,None,380.415137052536,381.4249179363251,00,00,,A1,False,False,True,True,False,False,False,False,False,False,True,No,No,No,No,No,No,2020_Jun_28_2023,nibs_stage_1,3.2.3,59.9958518035357,
13,0,13,0,,,,,,,,,,,,,,,,,,,,,,,383.45999097824097,None,383.43627114295964,385.44198203086853,384.84159836769106,None,388.2415605545044,None,389.64187345504763,399.64258098602295,400.04232749938967,None,401.4425799846649,402.44263100624084,00,00,,A1,False,False,True,True,False,False,False,False,False,False,True,No,No,No,No,No,No,2020_Jun_28_2023,nibs_stage_1,3.2.3,59.9958518035357,
14,0,14,0,,,,,,,,,,,,,,,,,,,,,,,404.45974493026733,None,404.4539842128754,406.4594900608063,405.85937151908877,None,409.25956735610964,None,410.6595514774323,420.66179299354553,421.06003842353823,422.06012892723083,422.4601879119873,423.4606409072876,00,00,,A1,False,False,True,True,False,False,False,False,False,False,True,No,No,No,No,No,No,2020_Jun_28_2023,nibs_stage_1,3.2.3,59.9958518035357,
,,,,0,0,0,0,0,0,0,0,,,,,,,,,,,,,,,,,,,,,,,,,,,,,00,00,,A1,False,False,True,True,False,False,False,False,False,False,True,No,No,No,No,No,No,2020_Jun_28_2023,nibs_stage_1,3.2.3,59.9958518035357,
,,,,0,0,0,0,1,0,1,0,,,,,,,,,,,,,,,,,,,,,,,,,,,,,00,00,,A1,False,False,True,True,False,False,False,False,False,False,True,No,No,No,No,No,No,2020_Jun_28_2023,nibs_stage_1,3.2.3,59.9958518035357,
,,,,0,0,0,0,,,,,,,,,,,,,,,,,,,,,,,,,,,,,,,,,00,00,,A1,False,False,True,True,False,False,False,False,False,False,True,No,No,No,No,No,No,2020_Jun_28_2023,nibs_stage_1,3.2.3,59.9958518035357,
,,,,1,0,1,0,0,0,0,0,,,,,,,,,,,,,,,,,,,,,,,,,,,,,00,00,,A1,False,False,True,True,False,False,False,False,False,False,True,No,No,No,No,No,No,2020_Jun_28_2023,nibs_stage_1,3.2.3,59.9958518035357,
,,,,1,0,1,0,1,0,1,0,,,,,,,,,,,,,,,,,,,,,,,,,,,,,00,00,,A1,False,False,True,True,False,False,False,False,False,False,True,No,No,No,No,No,No,2020_Jun_28_2023,nibs_stage_1,3.2.3,59.9958518035357,
,,,,1,0,1,0,,,,,,,,,,,,,,,,,,,,,,,,,,,,,,,,,00,00,,A1,False,False,True,True,False,False,False,False,False,False,True,No,No,No,No,No,No,2020_Jun_28_2023,nibs_stage_1,3.2.3,59.9958518035357,
0,0,0,0,2,0,2,0,,,,,,,,,447.52848196029663,None,"  - Task: Artifacts collection   
  - Please follow audio instruction              
",447.52848196029663,None,447.51444687843326,None,453.9120090007782,None,,455.9469380378723,None,455.93984870910646,457.94546008110046,457.3298173904419,None,460.72879848480227,None,462.1288555622101,472.12971806526184,472.5358515739441,None,473.9296419620514,474.92969703674316,00,00,,A1,False,False,True,True,False,False,False,False,False,False,True,No,No,No,No,No,No,2020_Jun_28_2023,nibs_stage_1,3.2.3,59.9958518035357,
1,0,1,0,2,0,2,0,,,,,,,,,,,,,,,,,,,476.96458196640015,None,476.94105024337773,478.9465899467468,478.3463655471802,None,481.7477444171906,None,483.1465955734253,493.14729404449463,493.547101354599,None,494.94735503196716,None,00,00,,A1,False,False,True,True,False,False,False,False,False,False,True,No,No,No,No,No,No,2020_Jun_28_2023,nibs_stage_1,3.2.3,59.9958518035357,
2,0,2,0,2,0,2,0,,,,,,,,,,,,,,,,,,,497.9808690547943,None,497.963239145279,499.964243888855,499.3709133625031,None,502.7642374992371,None,504.16432747840884,514.1651549339294,514.5648363590241,None,515.9653220176697,516.9658269882202,00,00,,A1,False,False,True,True,False,False,False,False,False,False,True,No,No,No,No,No,No,2020_Jun_28_2023,nibs_stage_1,3.2.3,59.9958518035357,
3,0,3,0,2,0,2,0,,,,,,,,,,,,,,,,,,,519.0008809566498,None,518.9771801948548,520.9818670749664,520.3663824558258,None,523.767816400528,None,525.1666704177857,535.1830399036407,535.5658224582672,None,536.9995310306549,None,00,00,,A1,False,False,True,True,False,False,False,False,False,False,True,No,No,No,No,No,No,2020_Jun_28_2023,nibs_stage_1,3.2.3,59.9958518035357,
4,0,4,0,2,0,2,0,,,,,,,,,,,,,,,,,,,540.0333318710327,None,540.010851097107,542.034420967102,541.4160004615784,None,544.8161524295807,None,546.2162955760956,556.2338230609894,556.6169994831085,557.6339020729065,558.0339210033417,None,00,00,,A1,False,False,True,True,False,False,False,False,False,False,True,No,No,No,No,No,No,2020_Jun_28_2023,nibs_stage_1,3.2.3,59.9958518035357,
5,0,5,0,2,0,2,0,,,,,,,,,,,,,,,,,,,561.0674440860748,None,561.0453361988068,563.0675220489502,562.4506364822388,None,565.8508053779602,566.8676900863647,567.2510853767395,577.2848920822144,577.6681214332581,None,579.0862679481506,None,00,00,,A1,False,False,True,True,False,False,False,False,False,False,True,No,No,No,No,No,No,2020_Jun_28_2023,nibs_stage_1,3.2.3,59.9958518035357,
6,0,6,0,2,0,2,0,,,,,,,,,,,,,,,,,,,582.0882260799408,None,582.0631172180176,584.0866830348969,583.4696033954621,None,586.8697854042053,None,588.2686265468598,598.2860169410706,598.6705895423889,None,600.0872800350189,None,00,00,,A1,False,False,True,True,False,False,False,False,False,False,True,No,No,No,No,No,No,2020_Jun_28_2023,nibs_stage_1,3.2.3,59.9958518035357,
7,0,7,0,2,0,2,0,,,,,,,,,,,,,,,,,,,603.1234419345856,None,603.0988361358643,605.1210649013519,604.5029195308686,607.5214428901672,607.9050694465637,None,609.3045223712921,619.3218419551849,619.7037175655365,None,621.121906042099,None,00,00,,A1,False,False,True,True,False,False,False,False,False,False,True,No,No,No,No,No,No,2020_Jun_28_2023,nibs_stage_1,3.2.3,59.9958518035357,
8,0,8,0,2,0,2,0,,,,,,,,,,,,,,,,,,,624.1592869758606,None,624.1331080913544,626.1553778648376,625.5383924007416,628.5555150508881,628.9373744487763,None,630.3387034893036,640.3559739589691,640.7381325721741,None,642.1560728549957,None,00,00,,A1,False,False,True,True,False,False,False,False,False,False,True,No,No,No,No,No,No,2020_Jun_28_2023,nibs_stage_1,3.2.3,59.9958518035357,
9,0,9,0,2,0,2,0,,,,,,,,,,,,,,,,,,,645.1922268867493,None,645.1677040576935,647.1899108886719,646.5727935791016,649.5899050235748,649.9730425834656,None,651.3719235420227,661.3903169631958,661.7738455295563,None,663.1904790401459,None,00,00,,A1,False,False,True,True,False,False,False,False,False,False,True,No,No,No,No,No,No,2020_Jun_28_2023,nibs_stage_1,3.2.3,59.9958518035357,
10,0,10,0,2,0,2,0,,,,,,,,,,,,,,,,,,,666.2283029556274,None,666.2006721019745,668.2242469787598,667.6074243545532,None,671.0061555862427,None,672.4062584400177,682.4250090122223,682.8082154750824,None,684.224958896637,None,00,00,,A1,False,False,True,True,False,False,False,False,False,False,True,No,No,No,No,No,No,2020_Jun_28_2023,nibs_stage_1,3.2.3,59.9958518035357,
11,0,11,0,2,0,2,0,,,,,,,,,,,,,,,,,,,687.2277760505676,None,687.2031192302704,689.2239198684692,688.6072305202484,None,692.007324552536,None,693.4090133666992,703.4260640144348,703.808170413971,None,705.2261629104614,None,00,00,,A1,False,False,True,True,False,False,False,False,False,False,True,No,No,No,No,No,No,2020_Jun_28_2023,nibs_stage_1,3.2.3,59.9958518035357,
12,0,12,0,2,0,2,0,,,,,,,,,,,,,,,,,,,708.2606139183044,None,708.2361301898957,710.2588789463043,709.6248334407807,712.64275598526,713.0415414333344,714.0758299827576,714.4262944221497,724.4423179626465,724.8266645431519,725.8438310623169,726.2437069416046,None,00,00,,A1,False,False,True,True,False,False,False,False,False,False,True,No,No,No,No,No,No,2020_Jun_28_2023,nibs_stage_1,3.2.3,59.9958518035357,
13,0,13,0,2,0,2,0,,,,,,,,,,,,,,,,,,,729.2798399925232,None,729.2545461177826,731.2773809432983,730.6603804588318,None,734.0605534076691,None,735.4606145381928,745.4782018661499,745.8599265575409,None,747.276848077774,None,00,00,,A1,False,False,True,True,False,False,False,False,False,False,True,No,No,No,No,No,No,2020_Jun_28_2023,nibs_stage_1,3.2.3,59.9958518035357,
14,0,14,0,2,0,2,0,,,,,,,,,,,,,,,,,,,750.3132710456848,None,750.2890531539917,752.3121249675751,751.6935804843903,None,755.0949433803559,None,756.4951494693756,766.512512922287,766.8943813800812,None,768.3125760555267,None,00,00,,A1,False,False,True,True,False,False,False,False,False,False,True,No,No,No,No,No,No,2020_Jun_28_2023,nibs_stage_1,3.2.3,59.9958518035357,
,,,,2,0,2,0,0,0,0,0,,,,,,,,,,,,,,,,,,,,,,,,,,,,,00,00,,A1,False,False,True,True,False,False,False,False,False,False,True,No,No,No,No,No,No,2020_Jun_28_2023,nibs_stage_1,3.2.3,59.9958518035357,
,,,,2,0,2,0,1,0,1,0,,,,,,,,,,,,,,,,,,,,,,,,,,,,,00,00,,A1,False,False,True,True,False,False,False,False,False,False,True,No,No,No,No,No,No,2020_Jun_28_2023,nibs_stage_1,3.2.3,59.9958518035357,
,,,,2,0,2,0,,,,,,,,,,,,,,,,,,,,,,,,,,,,,,,,,00,00,,A1,False,False,True,True,False,False,False,False,False,False,True,No,No,No,No,No,No,2020_Jun_28_2023,nibs_stage_1,3.2.3,59.9958518035357,
,,,,3,0,3,0,0,0,0,0,,,,,,,,,,,,,,,,,,,,,,,,,,,,,00,00,,A1,False,False,True,True,False,False,False,False,False,False,True,No,No,No,No,No,No,2020_Jun_28_2023,nibs_stage_1,3.2.3,59.9958518035357,
,,,,3,0,3,0,1,0,1,0,,,,,,,,,,,,,,,,,,,,,,,,,,,,,00,00,,A1,False,False,True,True,False,False,False,False,False,False,True,No,No,No,No,No,No,2020_Jun_28_2023,nibs_stage_1,3.2.3,59.9958518035357,
,,,,3,0,3,0,,,,,,,,,,,,,,,,,,,,,,,,,,,,,,,,,00,00,,A1,False,False,True,True,False,False,False,False,False,False,True,No,No,No,No,No,No,2020_Jun_28_2023,nibs_stage_1,3.2.3,59.9958518035357,
,,,,,,,,,,,,,,,,789.4000709056854,None,"  - Task: Artifacts collection   
  - Please follow audio instruction              
",789.4000709056854,None,789.375366640091,None,795.7793209552765,None,,,,,,,,,,,,,,,,,,,,,,,,,,,,,,,,,,,,,,,,,
