artifact_trial.thisRepN,artifact_trial.thisTrialN,artifact_trial.thisN,artifact_trial.thisIndex,pre_trial.thisRepN,pre_trial.thisTrialN,pre_trial.thisN,pre_trial.thisIndex,run.thisRepN,run.thisTrialN,run.thisN,run.thisIndex,instruction_text.text,instruction_text.started,instruction_text.stopped,instruction_cont.started,instruction_cont.stopped,Artifact_intro_title.started,Artifact_intro_title.stopped,Artifact_intro_text.text,Artifact_intro_text.started,Artifact_intro_text.stopped,Artifact_intro_audio.started,Artifact_intro_audio.stopped,Artifact_intro_cont.started,Artifact_intro_cont.stopped,Artifact_rec_text.text,Artifact_rec_text.started,Artifact_rec_text.stopped,Artifact_rec_beep_hint.started,Artifact_rec_beep_hint.stopped,Artifact_rec_action.started,Artifact_rec_action.stopped,Artifact_rec_beep_start.started,Artifact_rec_beep_start.stopped,Artifact_rec_recording.started,Artifact_rec_recording.stopped,Artifact_rec_beep_end.started,Artifact_rec_beep_end.stopped,Artifact_rec_break.started,Artifact_rec_break.stopped,Cali_de_pre_intro_title.started,Cali_de_pre_intro_title.stopped,Cali_de_pre_intro_text.text,Cali_de_pre_intro_text.started,Cali_de_pre_intro_text.stopped,Cali_de_pre_intro_audio.started,Cali_de_pre_intro_audio.stopped,Cali_de_pre_intro_cont.started,Cali_de_pre_intro_cont.stopped,Cali_de_pre_rec_text.text,Cali_de_pre_rec_text.started,Cali_de_pre_rec_text.stopped,Cali_de_pre_rec_beep_hint.started,Cali_de_pre_rec_beep_hint.stopped,Cali_de_pre_rec_question_text.text,Cali_de_pre_rec_question_text.started,Cali_de_pre_rec_question_text.stopped,Cali_de_pre_rec_beep_start.started,Cali_de_pre_rec_beep_start.stopped,Cali_de_pre_rec_beep_end.started,Cali_de_pre_rec_beep_end.stopped,Cali_de_pre_rec_break.started,Cali_de_pre_rec_break.stopped,filename,Pause_cont.started,Pause_cont.stopped,fade_in_text.text,fade_in_text.started,fade_in_text.stopped,RS_intro_title.started,RS_intro_title.stopped,RS_intro_text.text,RS_intro_text.started,RS_intro_text.stopped,RS_intro_audio.started,RS_intro_audio.stopped,RS_rec_text.text,RS_rec_text.started,RS_rec_text.stopped,RS_rec_cont.started,RS_rec_cont.stopped,participant,session,First language,German level,Full_screen,Instruction,Intro,Artifact,Cali_pre,Fade_in_out,Resting_State,QA,Pause,Cali_post,End,Breakpoint_Cali_pre_trial,Breakpoint_Run,Breakpoint_RS_block,Breakpoint_QA_block,Breakpoint_QA_trial,Breakpoint_Cali_post_trial,date,expName,psychopyVersion,frameRate,
0,0,0,0,,,,,,,,,"     Thank you for participating in the experiment: 

     Personalized non-invasive brain stimulation    
            for second language learning            
",7.752729177474976,None,22.738030195236206,None,30.40465021133423,37.422258138656616,"  - Task: Artifacts collection   
  - Please follow audio instruction              
",30.40465021133423,37.422258138656616,30.40439636707306,None,36.78877019882202,None,,45.12184715270996,None,45.103839468956,47.1063551902771,46.48928005695343,None,49.88813812732697,None,51.289578032493594,61.29006314277649,61.690098118782046,None,63.0901620388031,64.09025120735168,,,,,,,,,,,,,,,,,,,,,,,,,,,,,,,,,,,,,,,,,,00,00,,A1,False,True,True,True,True,True,True,True,True,True,True,No,No,No,No,No,No,2020_Mai_31_1509,nibs_stage_1,3.2.3,59.98366800573765,
1,0,1,0,,,,,,,,,,,,,,,,,,,,,,,,66.13899803161621,None,66.12193949222565,68.12371706962585,67.50708611011505,None,70.90718920230866,None,72.30730016231537,82.30781602859497,82.70779712200165,None,84.10792112350464,85.12463808059692,,,,,,,,,,,,,,,,,,,,,,,,,,,,,,,,,,,,,,,,,,00,00,,A1,False,True,True,True,True,True,True,True,True,True,True,No,No,No,No,No,No,2020_Mai_31_1509,nibs_stage_1,3.2.3,59.98366800573765,
2,0,2,0,,,,,,,,,,,,,,,,,,,,,,,,87.15738701820374,None,87.1394074678421,89.14151406288147,88.52335913181305,None,91.92507417201996,None,93.32502014636994,103.32411122322083,103.72564418315888,104.7259202003479,105.12426805496216,106.12565422058105,,,,,,,,,,,,,,,,,,,,,,,,,,,,,,,,,,,,,,,,,,00,00,,A1,False,True,True,True,True,True,True,True,True,True,True,No,No,No,No,No,No,2020_Mai_31_1509,nibs_stage_1,3.2.3,59.98366800573765,
3,0,3,0,,,,,,,,,,,,,,,,,,,,,,,,108.17439723014832,None,108.15708858966828,110.15798616409302,109.54246003627777,None,112.94265515804291,None,114.3413141489029,124.34321713447571,124.74330813884735,None,126.14330005645752,127.14355111122131,,,,,,,,,,,,,,,,,,,,,,,,,,,,,,,,,,,,,,,,,,00,00,,A1,False,True,True,True,True,True,True,True,True,True,True,No,No,No,No,No,No,2020_Mai_31_1509,nibs_stage_1,3.2.3,59.98366800573765,
4,0,4,0,,,,,,,,,,,,,,,,,,,,,,,,129.19277215003967,None,129.17481739521025,131.17698907852173,130.55890805721282,None,133.96043021678923,None,135.36044318675994,145.36093401908875,145.76134498119353,None,147.16109204292297,148.16108012199402,,,,,,,,,,,,,,,,,,,,,,,,,,,,,,,,,,,,,,,,,,00,00,,A1,False,True,True,True,True,True,True,True,True,True,True,No,No,No,No,No,No,2020_Mai_31_1509,nibs_stage_1,3.2.3,59.98366800573765,
5,0,5,0,,,,,,,,,,,,,,,,,,,,,,,,150.210431098938,None,150.1929574728012,152.19324207305908,151.57676107883452,None,154.97677118778228,None,156.38156015872954,166.41173601150513,166.79419620037078,167.81181621551514,168.2109260559082,None,,,,,,,,,,,,,,,,,,,,,,,,,,,,,,,,,,,,,,,,,,00,00,,A1,False,True,True,True,True,True,True,True,True,True,True,No,No,No,No,No,No,2020_Mai_31_1509,nibs_stage_1,3.2.3,59.98366800573765,
6,0,6,0,,,,,,,,,,,,,,,,,,,,,,,,171.24507117271423,None,171.22664959430693,173.24542808532715,172.6276851415634,None,176.02784616947173,177.04472017288208,177.42894918918608,187.44612908363342,187.82846505641936,None,189.24653506278992,None,,,,,,,,,,,,,,,,,,,,,,,,,,,,,,,,,,,,,,,,,,00,00,,A1,False,True,True,True,True,True,True,True,True,True,True,No,No,No,No,No,No,2020_Mai_31_1509,nibs_stage_1,3.2.3,59.98366800573765,
7,0,7,0,,,,,,,,,,,,,,,,,,,,,,,,192.278724193573,None,192.26103646755217,194.2787971496582,193.66308815479277,196.67994713783264,197.06225020885466,None,198.4633601427078,208.47947001457214,208.86385400295256,None,210.28062319755554,None,,,,,,,,,,,,,,,,,,,,,,,,,,,,,,,,,,,,,,,,,,00,00,,A1,False,True,True,True,True,True,True,True,True,True,True,No,No,No,No,No,No,2020_Mai_31_1509,nibs_stage_1,3.2.3,59.98366800573765,
8,0,8,0,,,,,,,,,,,,,,,,,,,,,,,,213.31353402137756,None,213.2955764055252,215.31420016288757,214.6974910020828,217.71431708335876,218.09663517475127,219.1134090423584,219.49677021503447,229.51406717300415,229.89823014736174,None,231.31501722335815,None,,,,,,,,,,,,,,,,,,,,,,,,,,,,,,,,,,,,,,,,,,00,00,,A1,False,True,True,True,True,True,True,True,True,True,True,No,No,No,No,No,No,2020_Mai_31_1509,nibs_stage_1,3.2.3,59.98366800573765,
9,0,9,0,,,,,,,,,,,,,,,,,,,,,,,,234.34757709503174,None,234.32885749340056,236.34746313095093,235.73080117702483,238.74871110916138,239.13095099925994,240.14882612228394,240.53111798763274,250.54931902885437,250.93166000843047,251.94847917556763,252.3484971523285,None,,,,,,,,,,,,,,,,,,,,,,,,,,,,,,,,,,,,,,,,,,00,00,,A1,False,True,True,True,True,True,True,True,True,True,True,No,No,No,No,No,No,2020_Mai_31_1509,nibs_stage_1,3.2.3,59.98366800573765,
10,0,10,0,,,,,,,,,,,,,,,,,,,,,,,,255.3820550441742,None,255.36314256191253,257.383492231369,256.7662430524826,None,260.1654940366745,None,261.56648499965667,271.5826849937439,271.9670010328293,None,273.38273906707764,None,,,,,,,,,,,,,,,,,,,,,,,,,,,,,,,,,,,,,,,,,,00,00,,A1,False,True,True,True,True,True,True,True,True,True,True,No,No,No,No,No,No,2020_Mai_31_1509,nibs_stage_1,3.2.3,59.98366800573765,
11,0,11,0,,,,,,,,,,,,,,,,,,,,,,,,276.3830602169037,None,276.365790438652,278.38435101509094,277.76733405590056,None,281.1674981832504,None,282.56645209789275,292.5836172103882,292.96710307598113,None,294.38429522514343,None,,,,,,,,,,,,,,,,,,,,,,,,,,,,,,,,,,,,,,,,,,00,00,,A1,False,True,True,True,True,True,True,True,True,True,True,No,No,No,No,No,No,2020_Mai_31_1509,nibs_stage_1,3.2.3,59.98366800573765,
12,0,12,0,,,,,,,,,,,,,,,,,,,,,,,,297.38393807411194,None,297.3681874990463,299.385094165802,298.76736409664153,301.78407311439514,302.16856319904326,None,303.56759316921233,313.5846621990204,313.9681599855423,None,315.3849470615387,None,,,,,,,,,,,,,,,,,,,,,,,,,,,,,,,,,,,,,,,,,,00,00,,A1,False,True,True,True,True,True,True,True,True,True,True,No,No,No,No,No,No,2020_Mai_31_1509,nibs_stage_1,3.2.3,59.98366800573765,
13,0,13,0,,,,,,,,,,,,,,,,,,,,,,,,318.418986082077,None,318.40102846622466,320.418594121933,319.8016060113907,None,323.2029250383377,None,324.60300118923186,334.620530128479,335.0024731874466,None,336.4192461967468,None,,,,,,,,,,,,,,,,,,,,,,,,,,,,,,,,,,,,,,,,,,00,00,,A1,False,True,True,True,True,True,True,True,True,True,True,No,No,No,No,No,No,2020_Mai_31_1509,nibs_stage_1,3.2.3,59.98366800573765,
14,0,14,0,,,,,,,,,,,,,,,,,,,,,,,,339.4527871608734,None,339.43510444164275,341.45295906066895,340.8361302137375,None,344.2363940000534,None,345.6374271631241,355.65350914001465,356.0379021883011,None,357.4536030292511,None,,,,,,,,,,,,,,,,,,,,,,,,,,,,,,,,,,,,,,,,,,00,00,,A1,False,True,True,True,True,True,True,True,True,True,True,No,No,No,No,No,No,2020_Mai_31_1509,nibs_stage_1,3.2.3,59.98366800573765,
,,,,0,0,0,0,,,,,,,,,,,,,,,,,,,,,,,,,,,,,,,,,,361.4710202217102,391.5053632259369,"  - Task: Read out the displayed German sentence   
  - Melodious beep sound: Trial start              
  - Beep sound with increasing pitch: Rec. start   
  - Beep sound with decreasing pitch: Rec. finish  
",361.4710202217102,391.5053632259369,361.4351917028427,None,390.87212204933167,None,,394.239666223526,None,394.22005541324614,396.23992705345154,Das laute Auto meines Nachbarn stört mich jeden Tag.,395.6387641429901,None,397.02330405712127,398.0388960838318,409.8228631734848,410.8396611213684,411.23957204818726,None,./data/Subject_00/Session_00/Exp_data/2020_Mai_31_1509/rec_cali_de_pre_trial_000.wav,,,,,,,,,,,,,,,,,,00,00,,A1,False,True,True,True,True,True,True,True,True,True,True,No,No,No,No,No,No,2020_Mai_31_1509,nibs_stage_1,3.2.3,59.98366800573765,
,,,,1,0,1,0,,,,,,,,,,,,,,,,,,,,,,,,,,,,,,,,,,,,,,,,,,,,415.2732951641083,None,415.2544294118881,417.27323508262634,"Zu den hundeartigen Tieren, die in Österreich leben, gehört der Wolf.",416.67330622673035,None,418.0566161394119,None,430.8574159860611,None,432.2740831375122,None,./data/Subject_00/Session_00/Exp_data/2020_Mai_31_1509/rec_cali_de_pre_trial_001.wav,,,,,,,,,,,,,,,,,,00,00,,A1,False,True,True,True,True,True,True,True,True,True,True,No,No,No,No,No,No,2020_Mai_31_1509,nibs_stage_1,3.2.3,59.98366800573765,
,,,,2,0,2,0,,,,,,,,,,,,,,,,,,,,,,,,,,,,,,,,,,,,,,,,,,,,436.3242211341858,None,436.3055514335632,438.32434916496277,Linda trinkt lieber eine heiße Schokolade.,437.72433519363403,None,439.10766513347625,None,451.89214808940886,None,453.3083441257477,None,./data/Subject_00/Session_00/Exp_data/2020_Mai_31_1509/rec_cali_de_pre_trial_002.wav,,,,,,,,,,,,,,,,,,00,00,,A1,False,True,True,True,True,True,True,True,True,True,True,No,No,No,No,No,No,2020_Mai_31_1509,nibs_stage_1,3.2.3,59.98366800573765,
,,,,3,0,3,0,,,,,,,,,,,,,,,,,,,,,,,,,,,,,,,,,,,,,,,,,,,,457.34258008003235,None,457.3233674287796,459.3421151638031,Nur mit der Fahrkarte kann man einsteigen.,458.74242305755615,None,460.1253941774368,None,472.92597205638884,None,474.34321808815,None,./data/Subject_00/Session_00/Exp_data/2020_Mai_31_1509/rec_cali_de_pre_trial_003.wav,,,,,,,,,,,,,,,,,,00,00,,A1,False,True,True,True,True,True,True,True,True,True,True,No,No,No,No,No,No,2020_Mai_31_1509,nibs_stage_1,3.2.3,59.98366800573765,
,,,,4,0,4,0,,,,,,,,,,,,,,,,,,,,,,,,,,,,,,,,,,,,,,,,,,,,478.394150018692,None,478.37434949874876,480.39445304870605,"Da drüben raucht es, wir sollten die Feuerwehr holen.",479.79336309432983,None,481.1763799905777,None,493.97710807323455,None,495.3937621116638,None,./data/Subject_00/Session_00/Exp_data/2020_Mai_31_1509/rec_cali_de_pre_trial_004.wav,,,,,,,,,,,,,,,,,,00,00,,A1,False,True,True,True,True,True,True,True,True,True,True,No,No,No,No,No,No,2020_Mai_31_1509,nibs_stage_1,3.2.3,59.98366800573765,
,,,,5,0,5,0,,,,,,,,,,,,,,,,,,,,,,,,,,,,,,,,,,,,,,,,,,,,499.41109013557434,None,499.38034160137175,501.4108340740204,Es besteht eine starke Verbindung zwischen Musik und Kunst.,500.81074500083923,None,502.1941540956497,None,514.9948130369187,None,516.4115102291107,None,./data/Subject_00/Session_00/Exp_data/2020_Mai_31_1509/rec_cali_de_pre_trial_005.wav,,,,,,,,,,,,,,,,,,00,00,,A1,False,True,True,True,True,True,True,True,True,True,True,No,No,No,No,No,No,2020_Mai_31_1509,nibs_stage_1,3.2.3,59.98366800573765,
,,,,6,0,6,0,,,,,,,,,,,,,,,,,,,,,,,,,,,,,,,,,,,,,,,,,,,,520.4120180606842,None,520.3942204236985,522.4118030071259,Ein Fußball Team besteht aus zehn Spielern und einem Tormann.,521.8118371963501,None,523.1952989816666,None,535.9959641218186,None,537.4125430583954,None,./data/Subject_00/Session_00/Exp_data/2020_Mai_31_1509/rec_cali_de_pre_trial_006.wav,,,,,,,,,,,,,,,,,,00,00,,A1,False,True,True,True,True,True,True,True,True,True,True,No,No,No,No,No,No,2020_Mai_31_1509,nibs_stage_1,3.2.3,59.98366800573765,
,,,,7,0,7,0,,,,,,,,,,,,,,,,,,,,,,,,,,,,,,,,,,,,,,,,,,,,541.4644291400909,None,541.4274194955826,543.4628632068634,Während der Weihnachtszeit gibt es unter dem Weihnachtsbaum Geschenke für die Kinder.,542.8630840778351,None,544.2511602163315,None,557.0471029996872,None,558.4636840820312,None,./data/Subject_00/Session_00/Exp_data/2020_Mai_31_1509/rec_cali_de_pre_trial_007.wav,,,,,,,,,,,,,,,,,,00,00,,A1,False,True,True,True,True,True,True,True,True,True,True,No,No,No,No,No,No,2020_Mai_31_1509,nibs_stage_1,3.2.3,59.98366800573765,
,,,,8,0,8,0,,,,,,,,,,,,,,,,,,,,,,,,,,,,,,,,,,,,,,,,,,,,562.4806480407715,None,562.4451354265213,564.4806711673737,Bienen liefern Honig.,563.8809380531311,None,565.2640012025834,566.2807581424713,578.0646951913834,None,579.4813210964203,None,./data/Subject_00/Session_00/Exp_data/2020_Mai_31_1509/rec_cali_de_pre_trial_008.wav,,,,,,,,,,,,,,,,,,00,00,,A1,False,True,True,True,True,True,True,True,True,True,True,No,No,No,No,No,No,2020_Mai_31_1509,nibs_stage_1,3.2.3,59.98366800573765,
,,,,9,0,9,0,,,,,,,,,,,,,,,,,,,,,,,,,,,,,,,,,,,,,,,,,,,,583.4988391399384,None,583.4795145034791,585.4984531402588,"Meine Eltern schauten vorbei, um sich meinen neuen Garten anzusehen.",584.8982980251312,None,586.2818420648575,587.298483133316,599.0823322057724,600.0991740226746,600.4991970062256,None,./data/Subject_00/Session_00/Exp_data/2020_Mai_31_1509/rec_cali_de_pre_trial_009.wav,,,,,,,,,,,,,,,,,,00,00,,A1,False,True,True,True,True,True,True,True,True,True,True,No,No,No,No,No,No,2020_Mai_31_1509,nibs_stage_1,3.2.3,59.98366800573765,
,,,,,,,,,,,,,,,,,,,,,,,,,,,,,,,,,,,,,,,,,,,,,,,,,,,,,,,,,,,,,,,,,604.516618013382,None,Please remain seated until further instruction via the earphone.,651.6850781440735,None,654.7193651199341,None," - Task: Keep seated and relaxed with either      
             opening or closing eyes                  
 - Beep sound with decreasing pitch: Block finish 
",654.7193651199341,None,654.6989067316056,None,"Please keep relaxed and close your eyes.
",677.7869391441345,697.8208420276642,699.6040720939636,None,,,,,,,,,,,,,,,,,,,,,,,,,,
