artifact_trial.thisRepN,artifact_trial.thisTrialN,artifact_trial.thisN,artifact_trial.thisIndex,pre_trial.thisRepN,pre_trial.thisTrialN,pre_trial.thisN,pre_trial.thisIndex,run.thisRepN,run.thisTrialN,run.thisN,run.thisIndex,QA_block.thisRepN,QA_block.thisTrialN,QA_block.thisN,QA_block.thisIndex,QA_trial.thisRepN,QA_trial.thisTrialN,QA_trial.thisN,QA_trial.thisIndex,Artifact_intro_title.started,Artifact_intro_title.stopped,Artifact_intro_text.text,Artifact_intro_text.started,Artifact_intro_text.stopped,Artifact_intro_audio.started,Artifact_intro_audio.stopped,Artifact_intro_cont.started,Artifact_intro_cont.stopped,Artifact_rec_text.text,Artifact_rec_text.started,Artifact_rec_text.stopped,Artifact_rec_beep_hint.started,Artifact_rec_beep_hint.stopped,Artifact_rec_action.started,Artifact_rec_action.stopped,Artifact_rec_beep_start.started,Artifact_rec_beep_start.stopped,Artifact_rec_recording.started,Artifact_rec_recording.stopped,Artifact_rec_beep_end.started,Artifact_rec_beep_end.stopped,Artifact_rec_break.started,Artifact_rec_break.stopped,Cali_de_pre_intro_title.started,Cali_de_pre_intro_title.stopped,Cali_de_pre_intro_text.text,Cali_de_pre_intro_text.started,Cali_de_pre_intro_text.stopped,Cali_de_pre_intro_audio.started,Cali_de_pre_intro_audio.stopped,Cali_de_pre_intro_cont.started,Cali_de_pre_intro_cont.stopped,Cali_de_pre_rec_text.text,Cali_de_pre_rec_text.started,Cali_de_pre_rec_text.stopped,Cali_de_pre_rec_beep_hint.started,Cali_de_pre_rec_beep_hint.stopped,Cali_de_pre_rec_question_text.text,Cali_de_pre_rec_question_text.started,Cali_de_pre_rec_question_text.stopped,Cali_de_pre_rec_beep_start.started,Cali_de_pre_rec_beep_start.stopped,Cali_de_pre_rec_beep_end.started,Cali_de_pre_rec_beep_end.stopped,Cali_de_pre_rec_break.started,Cali_de_pre_rec_break.stopped,filename,Pause_cont.started,Pause_cont.stopped,fade_in_text.text,fade_in_text.started,fade_in_text.stopped,RS_intro_title.started,RS_intro_title.stopped,RS_intro_text.text,RS_intro_text.started,RS_intro_text.stopped,RS_intro_audio.started,RS_intro_audio.stopped,RS_rec_text.text,RS_rec_text.started,RS_rec_text.stopped,QA_intro_title.started,QA_intro_title.stopped,QA_intro_text.text,QA_intro_text.started,QA_intro_text.stopped,QA_intro_audio.started,QA_intro_audio.stopped,QA_intro_cont.started,QA_intro_cont.stopped,QA_rec_text.text,QA_rec_text.started,QA_rec_text.stopped,QA_rec_beep_hint.started,QA_rec_beep_hint.stopped,QA_rec_question.sen_text,QA_rec_question.cen_text,QA_rec_question.started,QA_rec_question.stopped,QA_rec_beep_start.started,QA_rec_beep_start.stopped,QA_rec_beep_end.started,QA_rec_beep_end.stopped,QA_rec_break.started,QA_rec_break.stopped,fade_out_text.text,fade_out_text.started,fade_out_text.stopped,participant,session,First language,German level,Full_screen,Instruction,Intro,Artifact,Cali_pre,Fade_in_out,Resting_State,QA,Pause,Cali_post,End,Breakpoint_Cali_pre_trial,Breakpoint_Run,Breakpoint_RS_block,Breakpoint_QA_block,Breakpoint_QA_trial,Breakpoint_Cali_post_trial,date,expName,psychopyVersion,frameRate,
0,0,0,0,,,,,,,,,,,,,,,,,73.1487090587616,100.16406798362732,"  - Task: Artifacts collection   
  - Please follow audio instruction              
",73.1487090587616,100.16406798362732,73.12971985340118,None,100.53250002861023,None,,113.93367409706116,None,113.93199214935302,115.933758020401,116.31712620258331,None,119.71598999500274,None,121.11756317615509,131.11737608909607,131.51725809574128,None,132.9179470539093,None,,,,,,,,,,,,,,,,,,,,,,,,,,,,,,,,,,,,,,,,,,,,,,,,,,,,,,,,,,,,,,,,,,,00,00,,A1,False,False,True,True,True,True,True,True,True,True,True,No,No,No,No,No,No,2020_Jun_30_1838,nibs_stage_1,3.2.3,59.99224762959116,
1,0,1,0,,,,,,,,,,,,,,,,,,,,,,,,,,,133.91720390319824,None,133.91732399463655,135.9180510044098,136.30124609470369,None,139.7051321744919,None,141.10281507968904,151.10197496414185,151.50200002193452,152.50269103050232,152.90270900726318,153.9036591053009,,,,,,,,,,,,,,,,,,,,,,,,,,,,,,,,,,,,,,,,,,,,,,,,,,,,,,,,,,,,,,,,,,,00,00,,A1,False,False,True,True,True,True,True,True,True,True,True,No,No,No,No,No,No,2020_Jun_30_1838,nibs_stage_1,3.2.3,59.99224762959116,
2,0,2,0,,,,,,,,,,,,,,,,,,,,,,,,,,,153.9370470046997,None,153.93700132369997,155.93647599220276,156.31962220668794,None,159.70421903133393,None,161.12113111019136,171.12186193466187,171.5043331861496,None,172.90442395210266,173.90448808670044,,,,,,,,,,,,,,,,,,,,,,,,,,,,,,,,,,,,,,,,,,,,,,,,,,,,,,,,,,,,,,,,,,,00,00,,A1,False,False,True,True,True,True,True,True,True,True,True,No,No,No,No,No,No,2020_Jun_30_1838,nibs_stage_1,3.2.3,59.99224762959116,
3,0,3,0,,,,,,,,,,,,,,,,,,,,,,,,,,,173.95431208610535,None,173.9378303050995,175.94183897972107,176.3208719968796,None,179.72270720005037,None,181.12177603244783,191.12207889556885,191.52202503681184,192.52354788780212,192.9220850467682,None,,,,,,,,,,,,,,,,,,,,,,,,,,,,,,,,,,,,,,,,,,,,,,,,,,,,,,,,,,,,,,,,,,,00,00,,A1,False,False,True,True,True,True,True,True,True,True,True,No,No,No,No,No,No,2020_Jun_30_1838,nibs_stage_1,3.2.3,59.99224762959116,
4,0,4,0,,,,,,,,,,,,,,,,,,,,,,,,,,,193.92437195777893,None,193.92341511249543,195.9235270023346,196.30686514377595,None,199.70685307979585,None,201.10543911457063,211.10539603233337,211.50540821552278,None,212.90592408180237,213.90598797798157,,,,,,,,,,,,,,,,,,,,,,,,,,,,,,,,,,,,,,,,,,,,,,,,,,,,,,,,,,,,,,,,,,,00,00,,A1,False,False,True,True,True,True,True,True,True,True,True,No,No,No,No,No,No,2020_Jun_30_1838,nibs_stage_1,3.2.3,59.99224762959116,
5,0,5,0,,,,,,,,,,,,,,,,,,,,,,,,,,,213.93933510780334,None,213.93935005664827,215.94017696380615,216.32208507061006,None,219.72199909687043,None,221.12276022434236,231.12361693382263,231.5236181497574,None,232.9236240386963,233.92299103736877,,,,,,,,,,,,,,,,,,,,,,,,,,,,,,,,,,,,,,,,,,,,,,,,,,,,,,,,,,,,,,,,,,,00,00,,A1,False,False,True,True,True,True,True,True,True,True,True,No,No,No,No,No,No,2020_Jun_30_1838,nibs_stage_1,3.2.3,59.99224762959116,
6,0,6,0,,,,,,,,,,,,,,,,,,,,,,,,,,,233.9392809867859,None,233.9396621465683,235.93948197364807,236.3226241350174,None,239.72271220684053,240.72373700141907,241.122301030159,251.12387990951538,251.52389113903047,None,252.92388892173767,253.92407703399658,,,,,,,,,,,,,,,,,,,,,,,,,,,,,,,,,,,,,,,,,,,,,,,,,,,,,,,,,,,,,,,,,,,00,00,,A1,False,False,True,True,True,True,True,True,True,True,True,No,No,No,No,No,No,2020_Jun_30_1838,nibs_stage_1,3.2.3,59.99224762959116,
7,0,7,0,,,,,,,,,,,,,,,,,,,,,,,,,,,253.97410106658936,None,253.95741925239565,255.97245693206787,256.33916800022126,259.34064412117004,259.7409340620041,None,261.1396910429001,271.13942193984985,271.53941504955293,None,272.9394369125366,273.9400279521942,,,,,,,,,,,,,,,,,,,,,,,,,,,,,,,,,,,,,,,,,,,,,,,,,,,,,,,,,,,,,,,,,,,00,00,,A1,False,False,True,True,True,True,True,True,True,True,True,No,No,No,No,No,No,2020_Jun_30_1838,nibs_stage_1,3.2.3,59.99224762959116,
8,0,8,0,,,,,,,,,,,,,,,,,,,,,,,,,,,273.9566729068756,None,273.95669906139375,275.95655488967896,276.3399562120438,279.3410038948059,279.7410330057144,None,281.1400791883469,291.1577639579773,291.53980820178987,None,292.9399108886719,293.94079995155334,,,,,,,,,,,,,,,,,,,,,,,,,,,,,,,,,,,,,,,,,,,,,,,,,,,,,,,,,,,,,,,,,,,00,00,,A1,False,False,True,True,True,True,True,True,True,True,True,No,No,No,No,No,No,2020_Jun_30_1838,nibs_stage_1,3.2.3,59.99224762959116,
9,0,9,0,,,,,,,,,,,,,,,,,,,,,,,,,,,293.95720911026,None,293.9574710607529,295.95803904533386,296.34041302204133,299.34149408340454,299.7417451620102,None,301.1425542116165,311.15744709968567,311.5412360906601,None,312.940416097641,313.94096207618713,,,,,,,,,,,,,,,,,,,,,,,,,,,,,,,,,,,,,,,,,,,,,,,,,,,,,,,,,,,,,,,,,,,00,00,,A1,False,False,True,True,True,True,True,True,True,True,True,No,No,No,No,No,No,2020_Jun_30_1838,nibs_stage_1,3.2.3,59.99224762959116,
10,0,10,0,,,,,,,,,,,,,,,,,,,,,,,,,,,313.97432494163513,313.97432494163513,313.95763318538667,315.9586660861969,316.3586670637131,None,319.75729315280915,None,321.1577231168747,331.1581029891968,331.55927102565767,None,332.95770597457886,333.9582269191742,,,,,,,,,,,,,,,,,,,,,,,,,,,,,,,,,,,,,,,,,,,,,,,,,,,,,,,,,,,,,,,,,,,00,00,,A1,False,False,True,True,True,True,True,True,True,True,True,No,No,No,No,No,No,2020_Jun_30_1838,nibs_stage_1,3.2.3,59.99224762959116,
11,0,11,0,,,,,,,,,,,,,,,,,,,,,,,,,,,333.9749131202698,None,333.97489802837373,335.9744689464569,336.35783712863923,None,339.75937407016755,340.7594521045685,341.15942018032075,351.1587960720062,351.55876700878144,None,352.9431519508362,353.94217896461487,,,,,,,,,,,,,,,,,,,,,,,,,,,,,,,,,,,,,,,,,,,,,,,,,,,,,,,,,,,,,,,,,,,00,00,,A1,False,False,True,True,True,True,True,True,True,True,True,No,No,No,No,No,No,2020_Jun_30_1838,nibs_stage_1,3.2.3,59.99224762959116,
12,0,12,0,,,,,,,,,,,,,,,,,,,,,,,,,,,353.97552490234375,None,353.97554008960725,355.9761800765991,356.35897104740144,359.35909390449524,359.75910918712617,None,361.16014020442964,371.17579102516174,371.5598181962967,None,372.95920300483704,373.9591369628906,,,,,,,,,,,,,,,,,,,,,,,,,,,,,,,,,,,,,,,,,,,,,,,,,,,,,,,,,,,,,,,,,,,00,00,,A1,False,False,True,True,True,True,True,True,True,True,True,No,No,No,No,No,No,2020_Jun_30_1838,nibs_stage_1,3.2.3,59.99224762959116,
13,0,13,0,,,,,,,,,,,,,,,,,,,,,,,,,,,373.976371049881,None,373.97580807209016,375.9761130809784,376.3594390630722,None,379.7596711397171,380.7599720954895,381.1601120710373,391.15995693206787,391.5599641084671,None,392.9599680900574,393.96045899391174,,,,,,,,,,,,,,,,,,,,,,,,,,,,,,,,,,,,,,,,,,,,,,,,,,,,,,,,,,,,,,,,,,,00,00,,A1,False,False,True,True,True,True,True,True,True,True,True,No,No,No,No,No,No,2020_Jun_30_1838,nibs_stage_1,3.2.3,59.99224762959116,
14,0,14,0,,,,,,,,,,,,,,,,,,,,,,,,,,,393.9772300720215,None,393.9771301031113,395.9776198863983,396.3605000257492,None,399.76175515651704,None,401.161829161644,411.1622579097748,411.5456341981888,None,412.94567608833313,413.9459300041199,,,,,,,,,,,,,,,,,,,,,,,,,,,,,,,,,,,,,,,,,,,,,,,,,,,,,,,,,,,,,,,,,,,00,00,,A1,False,False,True,True,True,True,True,True,True,True,True,No,No,No,No,No,No,2020_Jun_30_1838,nibs_stage_1,3.2.3,59.99224762959116,
,,,,0,0,0,0,,,,,,,,,,,,,,,,,,,,,,,,,,,,,,,,,,,,,413.9790771007538,443.9805190563202,"  - Task: Read out the displayed German sentence   
  - Melodious beep sound: Trial start              
  - Beep sound with increasing pitch: Rec. start   
  - Beep sound with decreasing pitch: Rec. finish  
",413.9790771007538,443.9805190563202,413.9790741682053,None,444.3791708946228,None,,444.4125030040741,None,444.39584200382234,446.3975360393524,Die Zähne werden geputzt und der Bart rasiert.,446.79729890823364,464.39825892448425,448.19743316173555,None,460.99809210300447,None,462.39672899246216,464.39825892448425,./data/Subject_00/Session_00/Exp_data/2020_Jun_30_1838/rec_cali_de_pre_trial_000.wav,,,,,,,,,,,,,,,,,,,,,,,,,,,,,,,,,,,,,,,,,,,00,00,,A1,False,False,True,True,True,True,True,True,True,True,True,No,No,No,No,No,No,2020_Jun_30_1838,nibs_stage_1,3.2.3,59.99224762959116,
,,,,1,0,1,0,,,,,,,,,,,,,,,,,,,,,,,,,,,,,,,,,,,,,,,,,,,,,,,464.43165707588196,None,464.4149300336838,466.4317491054535,Früher haben in Europa und Asien Neandertaler gelebt.,466.79841899871826,484.3979299068451,468.19846312999726,None,480.997744011879,None,482.3992590904236,484.3979299068451,./data/Subject_00/Session_00/Exp_data/2020_Jun_30_1838/rec_cali_de_pre_trial_001.wav,,,,,,,,,,,,,,,,,,,,,,,,,,,,,,,,,,,,,,,,,,,00,00,,A1,False,False,True,True,True,True,True,True,True,True,True,No,No,No,No,No,No,2020_Jun_30_1838,nibs_stage_1,3.2.3,59.99224762959116,
,,,,2,0,2,0,,,,,,,,,,,,,,,,,,,,,,,,,,,,,,,,,,,,,,,,,,,,,,,484.4327290058136,None,484.43275706768037,486.43279910087585,Dieses Brot ist maschinell hergestellt worden.,486.8161509037018,504.41714906692505,488.2181751012802,None,501.017001080513,None,502.4171509742737,504.41714906692505,./data/Subject_00/Session_00/Exp_data/2020_Jun_30_1838/rec_cali_de_pre_trial_002.wav,,,,,,,,,,,,,,,,,,,,,,,,,,,,,,,,,,,,,,,,,,,00,00,,A1,False,False,True,True,True,True,True,True,True,True,True,No,No,No,No,No,No,2020_Jun_30_1838,nibs_stage_1,3.2.3,59.99224762959116,
,,,,3,0,3,0,,,,,,,,,,,,,,,,,,,,,,,,,,,,,,,,,,,,,,,,,,,,,,,504.4671559333801,None,504.46716239452365,506.467325925827,Einige NGOs schützen die Rechte der Menschen.,506.85067105293274,None,508.2507042169571,None,521.0500530481338,None,522.4516429901123,None,./data/Subject_00/Session_00/Exp_data/2020_Jun_30_1838/rec_cali_de_pre_trial_003.wav,,,,,,,,,,,,,,,,,,,,,,,,,,,,,,,,,,,,,,,,,,,00,00,,A1,False,False,True,True,True,True,True,True,True,True,True,No,No,No,No,No,No,2020_Jun_30_1838,nibs_stage_1,3.2.3,59.99224762959116,
,,,,4,0,4,0,,,,,,,,,,,,,,,,,,,,,,,,,,,,,,,,,,,,,,,,,,,,,,,524.4351689815521,None,524.4349631547927,526.4352860450745,Die Ärztin hat Andrea ein Rezept ausgestellt.,526.8186910152435,544.4195001125336,528.2185391664505,None,541.0193530797958,None,542.4194920063019,544.4195001125336,./data/Subject_00/Session_00/Exp_data/2020_Jun_30_1838/rec_cali_de_pre_trial_004.wav,,,,,,,,,,,,,,,,,,,,,,,,,,,,,,,,,,,,,,,,,,,00,00,,A1,False,False,True,True,True,True,True,True,True,True,True,No,No,No,No,No,No,2020_Jun_30_1838,nibs_stage_1,3.2.3,59.99224762959116,
,,,,5,0,5,0,,,,,,,,,,,,,,,,,,,,,,,,,,,,,,,,,,,,,,,,,,,,,,,544.4528980255127,None,544.436171221733,546.45303606987,"Ich kann dir gerne mein Fahrrad leihen, wenn du möchtest.",546.819669008255,564.4207289218903,548.2187580347061,549.2198090553284,561.0205601930618,562.0206348896027,562.4206318855286,564.4207289218903,./data/Subject_00/Session_00/Exp_data/2020_Jun_30_1838/rec_cali_de_pre_trial_005.wav,,,,,,,,,,,,,,,,,,,,,,,,,,,,,,,,,,,,,,,,,,,00,00,,A1,False,False,True,True,True,True,True,True,True,True,True,No,No,No,No,No,No,2020_Jun_30_1838,nibs_stage_1,3.2.3,59.99224762959116,
,,,,6,0,6,0,,,,,,,,,,,,,,,,,,,,,,,,,,,,,,,,,,,,,,,,,,,,,,,564.4374299049377,None,564.4374000310897,566.437558889389,Lenas Hund Tobi wird immer am Abend gefüttert.,566.8208949565887,584.4224300384521,568.2209810495376,None,581.0204431295394,None,582.4220650196075,584.4224300384521,./data/Subject_00/Session_00/Exp_data/2020_Jun_30_1838/rec_cali_de_pre_trial_006.wav,,,,,,,,,,,,,,,,,,,,,,,,,,,,,,,,,,,,,,,,,,,00,00,,A1,False,False,True,True,True,True,True,True,True,True,True,No,No,No,No,No,No,2020_Jun_30_1838,nibs_stage_1,3.2.3,59.99224762959116,
,,,,7,0,7,0,,,,,,,,,,,,,,,,,,,,,,,,,,,,,,,,,,,,,,,,,,,,,,,584.4554409980774,None,584.4391011476516,586.437392950058,Durch ein Fernrohr kann man manchmal sogar die Venus sehen.,586.8388299942017,604.4401559829712,588.2390980005264,589.2390251159668,601.0397900819778,602.0398440361023,602.4398701190948,604.4401559829712,./data/Subject_00/Session_00/Exp_data/2020_Jun_30_1838/rec_cali_de_pre_trial_007.wav,,,,,,,,,,,,,,,,,,,,,,,,,,,,,,,,,,,,,,,,,,,00,00,,A1,False,False,True,True,True,True,True,True,True,True,True,No,No,No,No,No,No,2020_Jun_30_1838,nibs_stage_1,3.2.3,59.99224762959116,
,,,,8,0,8,0,,,,,,,,,,,,,,,,,,,,,,,,,,,,,,,,,,,,,,,,,,,,,,,604.4567000865936,None,604.4568270921707,606.4568169116974,Lisa kann schon mit großen Zahlen rechnen.,606.840145111084,624.4414370059967,608.2402731657028,None,621.0411280870437,None,622.4412240982056,624.4414370059967,./data/Subject_00/Session_00/Exp_data/2020_Jun_30_1838/rec_cali_de_pre_trial_008.wav,,,,,,,,,,,,,,,,,,,,,,,,,,,,,,,,,,,,,,,,,,,00,00,,A1,False,False,True,True,True,True,True,True,True,True,True,No,No,No,No,No,No,2020_Jun_30_1838,nibs_stage_1,3.2.3,59.99224762959116,
,,,,9,0,9,0,,,,,,,,,,,,,,,,,,,,,,,,,,,,,,,,,,,,,,,,,,,,,,,624.4580368995667,None,624.4581081151962,626.4581460952759,"Ich glaube, es geht um ein rotes Auto.",626.8416631221771,644.4427180290222,628.2416562318801,None,641.0424861192703,None,642.4425489902496,644.4427180290222,./data/Subject_00/Session_00/Exp_data/2020_Jun_30_1838/rec_cali_de_pre_trial_009.wav,,,,,,,,,,,,,,,,,,,,,,,,,,,,,,,,,,,,,,,,,,,00,00,,A1,False,False,True,True,True,True,True,True,True,True,True,No,No,No,No,No,No,2020_Jun_30_1838,nibs_stage_1,3.2.3,59.99224762959116,
,,,,,,,,0,0,0,0,0,0,0,0,0,0,0,0,,,,,,,,,,,,,,,,,,,,,,,,,,,,,,,,,,,,,,,,,,,,,,,,./data/Subject_00/Session_00/Exp_data/2020_Jun_30_1838/rec_QA_run_00_block_000_trial_000.wav,1094.0103509426117,None,Please remain seated until further instruction via the earphone.,689.112459897995,None,891.5943539142609,None," - Task: Keep seated and relaxed with either      
             opening or closing eyes                  
 - Beep sound with decreasing pitch: Block finish 
",891.5943539142609,None,891.5927963495254,None,"Please keep relaxed and close your eyes.
",912.6126699447632,1092.6253809928894,1106.0440928936005,1146.0463650226593," - Task: Listen to the question& Speak out answer 
 - Melodious beep sound: Trial start              
 - Silent sound (blank): censored word            
 - Beep sound with increasing pitch: Rec. start   
 - Beep sound with decreasing pitch: Rec. finish  
",1106.0440928936005,1146.0463650226593,1106.0265011072158,None,1146.429769039154,None,Listen to the question and speak out your answer!,1147.3644139766693,None,1147.3465032815932,1149.3481500148773,Ich muss mein Versprechen halten.,halten,1149.7315091371536,1151.6651871204376,1152.080226111412,None,1164.9312741041183,None,1166.3329339027405,None,,,,00,00,,A1,False,False,True,True,True,True,True,True,True,True,True,No,No,No,No,No,No,2020_Jun_30_1838,nibs_stage_1,3.2.3,59.99224762959116,
,,,,,,,,0,0,0,0,0,0,0,0,,,,,,,,,,,,,,,,,,,,,,,,,,,,,,,,,,,,,,,,,,,,,,,,,,,,,1167.3330640792847,None,,,,,,,,,,,,,,,,,,,,,,,,,,,,,,,,,,,,,,,,,00,00,,A1,False,False,True,True,True,True,True,True,True,True,True,No,No,No,No,No,No,2020_Jun_30_1838,nibs_stage_1,3.2.3,59.99224762959116,
,,,,,,,,0,0,0,0,1,0,1,0,0,0,0,0,,,,,,,,,,,,,,,,,,,,,,,,,,,,,,,,,,,,,,,,,,,,,,,,./data/Subject_00/Session_00/Exp_data/2020_Jun_30_1838/rec_QA_run_00_block_001_trial_000.wav,,,,,,,,,,,,,,,,,,,,,,,,,Listen to the question and speak out your answer!,1179.399199962616,None,1179.3834864616394,1181.3829629421234,"Es ist nicht erlaubt für alle Autos, vor dem Notausgang zu parken.",parken,1181.7663351774215,None,1186.2344240427017,None,1196.9688071489334,None,1198.3677470684052,None,,,,00,00,,A1,False,False,True,True,True,True,True,True,True,True,True,No,No,No,No,No,No,2020_Jun_30_1838,nibs_stage_1,3.2.3,59.99224762959116,
,,,,,,,,0,0,0,0,1,0,1,0,,,,,,,,,,,,,,,,,,,,,,,,,,,,,,,,,,,,,,,,,,,,,,,,,,,,,1199.3700170516968,None,,,,,,,,,,,,,,,,,,,,,,,,,,,,,,,,,,,,,,,,,00,00,,A1,False,False,True,True,True,True,True,True,True,True,True,No,No,No,No,No,No,2020_Jun_30_1838,nibs_stage_1,3.2.3,59.99224762959116,
,,,,,,,,0,0,0,0,,,,,,,,,,,,,,,,,,,,,,,,,,,,,,,,,,,,,,,,,,,,,,,,,,,,,,,,,,,,,,,,,,,,,,,,,,,,,,,,,,,,,,,,,,,,,,,,Please remain seated until further instruction via the earphone.,689.112459897995,None,00,00,,A1,False,False,True,True,True,True,True,True,True,True,True,No,No,No,No,No,No,2020_Jun_30_1838,nibs_stage_1,3.2.3,59.99224762959116,
,,,,,,,,,,,,,,,,,,,,,,,,,,,,,,,,,,,,,,,,,,,,,,,,,,,,,,,,,,,,,,,,,,,,,,Please remain seated until further instruction via the earphone.,1243.3869950771332,None,1243.4024760723114,None," - Task: Keep seated and relaxed with either      
             opening or closing eyes                  
 - Beep sound with decreasing pitch: Block finish 
",1243.4024760723114,None,1243.4036661863327,None,,,,,,,,,,,,,,,,,,,,,,,,,,,,,,,,,,,,,,,,,,,,,,,,,,,,,,,,
