run.thisRepN,run.thisTrialN,run.thisN,run.thisIndex,artifact_trial.thisRepN,artifact_trial.thisTrialN,artifact_trial.thisN,artifact_trial.thisIndex,QA_block.thisRepN,QA_block.thisTrialN,QA_block.thisN,QA_block.thisIndex,QA_trial.thisRepN,QA_trial.thisTrialN,QA_trial.thisN,QA_trial.thisIndex,fade_in_text.text,fade_in_text.started,fade_in_text.stopped,Artifact_intro_title.started,Artifact_intro_title.stopped,Artifact_intro_text.text,Artifact_intro_text.started,Artifact_intro_text.stopped,Artifact_intro_audio.started,Artifact_intro_audio.stopped,Artifact_intro_cont.started,Artifact_intro_cont.stopped,Artifact_rec_text.text,Artifact_rec_text.started,Artifact_rec_text.stopped,Artifact_rec_beep_hint.started,Artifact_rec_beep_hint.stopped,Artifact_rec_action.started,Artifact_rec_action.stopped,Artifact_rec_beep_start.started,Artifact_rec_beep_start.stopped,Artifact_rec_recording.started,Artifact_rec_recording.stopped,Artifact_rec_beep_end.started,Artifact_rec_beep_end.stopped,Artifact_rec_break.started,Artifact_rec_break.stopped,RS_intro_title.started,RS_intro_title.stopped,RS_intro_text.text,RS_intro_text.started,RS_intro_text.stopped,RS_intro_audio.started,RS_intro_audio.stopped,RS_rec_text.text,RS_rec_text.started,RS_rec_text.stopped,Pause_cont.started,Pause_cont.stopped,QA_intro_title.started,QA_intro_title.stopped,QA_intro_text.text,QA_intro_text.started,QA_intro_text.stopped,QA_intro_audio.started,QA_intro_audio.stopped,QA_intro_cont.started,QA_intro_cont.stopped,QA_rec_text.text,QA_rec_text.started,QA_rec_text.stopped,QA_rec_beep_hint.started,QA_rec_beep_hint.stopped,QA_rec_question.sen_text,QA_rec_question.cen_text,QA_rec_question.started,QA_rec_question.stopped,QA_rec_beep_start.started,QA_rec_beep_start.stopped,QA_rec_beep_end.started,QA_rec_beep_end.stopped,QA_rec_break.started,QA_rec_break.stopped,filename,fade_out_text.text,fade_out_text.started,fade_out_text.stopped,participant,session,First language,German level,Full_screen,Instruction,Intro,Artifact,Cali_pre,Fade_in_out,Artifact_within,Resting_State,QA,Pause,Cali_post,End,Breakpoint_Cali_pre_trial,Breakpoint_Run,Breakpoint_RS_block,Breakpoint_QA_block,Breakpoint_QA_trial,Breakpoint_Cali_post_trial,date,expName,psychopyVersion,frameRate,
2,0,2,0,0,0,0,0,,,,,,,,,Please remain seated until further instruction via the earphone.,71.0952570438385,None,73.12866306304932,100.14651393890381,"  - Task: Artifacts collection   
  - Please follow audio instruction              
",73.12866306304932,100.14651393890381,73.11216988563538,None,99.51313209533691,None,,105.64689803123474,None,105.63023796081544,107.63017296791077,107.01356472969056,None,110.41375460624695,None,111.81386461257935,121.81432104110718,122.21436467170716,123.21431303024292,123.61434507369995,124.61446404457092,,,,,,,,,,,,,,,,,,,,,,,,,,,,,,,,,,,,,,,,,06,03,Ducth,A2,True,False,True,False,False,True,True,True,True,True,True,True,No,2,No,No,No,No,2020_Jul_27_1654,nibs_stage_1,3.2.3,59.98332487182604,
2,0,2,0,1,0,1,0,,,,,,,,,,,,,,,,,,,,,,127.66459393501282,None,127.64803495407105,129.64810299873352,129.0315097808838,None,132.43153562545777,None,133.83162679672242,143.83220911026,144.23238863945008,145.23243308067322,145.63267707824707,146.6322259902954,,,,,,,,,,,,,,,,,,,,,,,,,,,,,,,,,,,,,,,,,06,03,Ducth,A2,True,False,True,False,False,True,True,True,True,True,True,True,No,2,No,No,No,No,2020_Jul_27_1654,nibs_stage_1,3.2.3,59.98332487182604,
2,0,2,0,2,0,2,0,,,,,,,,,,,,,,,,,,,,,,149.68247604370117,None,149.66594591140748,151.66621112823486,151.04921879768372,None,154.44968667030335,None,155.849444770813,165.85047602653503,166.25010480880738,167.25062489509583,167.6505630016327,168.65013909339905,,,,,,,,,,,,,,,,,,,,,,,,,,,,,,,,,,,,,,,,,06,03,Ducth,A2,True,False,True,False,False,True,True,True,True,True,True,True,No,2,No,No,No,No,2020_Jul_27_1654,nibs_stage_1,3.2.3,59.98332487182604,
2,0,2,0,3,0,3,0,,,,,,,,,,,,,,,,,,,,,,171.70041394233704,None,171.68434085845948,173.68378710746765,173.06716480255128,None,176.46751775741578,None,177.86784472465516,187.86803102493286,188.26856770515442,None,189.66837811470032,190.66806411743164,,,,,,,,,,,,,,,,,,,,,,,,,,,,,,,,,,,,,,,,,06,03,Ducth,A2,True,False,True,False,False,True,True,True,True,True,True,True,No,2,No,No,No,No,2020_Jul_27_1654,nibs_stage_1,3.2.3,59.98332487182604,
2,0,2,0,4,0,4,0,,,,,,,,,,,,,,,,,,,,,,193.7181990146637,None,193.7021547794342,195.70154690742493,195.0848726272583,None,198.48612179756165,None,199.8862267971039,209.8858449459076,210.2856976032257,211.28562998771667,211.6857349872589,212.68582701683044,,,,,,,,,,,,,,,,,,,,,,,,,,,,,,,,,,,,,,,,,06,03,Ducth,A2,True,False,True,False,False,True,True,True,True,True,True,True,No,2,No,No,No,No,2020_Jul_27_1654,nibs_stage_1,3.2.3,59.98332487182604,
2,0,2,0,5,0,5,0,,,,,,,,,,,,,,,,,,,,,,215.7360339164734,None,215.7197877407074,217.71955704689026,217.10299363136292,None,220.50352182388306,221.50313997268677,221.903155708313,231.90369606018066,232.30373373031617,233.30392003059387,233.70372605323792,234.70389008522034,,,,,,,,,,,,,,,,,,,,,,,,,,,,,,,,,,,,,,,,,06,03,Ducth,A2,True,False,True,False,False,True,True,True,True,True,True,True,No,2,No,No,No,No,2020_Jul_27_1654,nibs_stage_1,3.2.3,59.98332487182604,
2,0,2,0,6,0,6,0,,,,,,,,,,,,,,,,,,,,,,237.75479412078857,None,237.73749890327454,239.73749089241028,239.1207646369934,None,242.52095665931702,None,243.92101469039918,253.92151808738708,254.32155170440674,None,255.72158312797546,256.7216579914093,,,,,,,,,,,,,,,,,,,,,,,,,,,,,,,,,,,,,,,,,06,03,Ducth,A2,True,False,True,False,False,True,True,True,True,True,True,True,No,2,No,No,No,No,2020_Jul_27_1654,nibs_stage_1,3.2.3,59.98332487182604,
2,0,2,0,7,0,7,0,,,,,,,,,,,,,,,,,,,,,,259.77188205718994,None,259.7553438186645,261.7552869319916,261.138570690155,264.1387150287628,264.53877463340757,None,265.93877782821653,275.9560089111328,276.33937563896177,None,277.73945903778076,278.7395279407501,,,,,,,,,,,,,,,,,,,,,,,,,,,,,,,,,,,,,,,,,06,03,Ducth,A2,True,False,True,False,False,True,True,True,True,True,True,True,No,2,No,No,No,No,2020_Jul_27_1654,nibs_stage_1,3.2.3,59.98332487182604,
2,0,2,0,8,0,8,0,,,,,,,,,,,,,,,,,,,,,,281.789724111557,None,281.77330293655393,283.77303194999695,283.1564947605133,286.15678691864014,286.5565988063812,None,287.9567626953125,297.9572710990906,298.3572236537933,299.35758209228516,299.7571840286255,300.7573199272156,,,,,,,,,,,,,,,,,,,,,,,,,,,,,,,,,,,,,,,,,06,03,Ducth,A2,True,False,True,False,False,True,True,True,True,True,True,True,No,2,No,No,No,No,2020_Jul_27_1654,nibs_stage_1,3.2.3,59.98332487182604,
2,0,2,0,9,0,9,0,,,,,,,,,,,,,,,,,,,,,,303.8075408935547,None,303.79105081558225,305.7910199165344,305.174329662323,308.1744589805603,308.5744976043701,309.574481010437,309.97448577880857,319.97501397132874,320.3749476909637,321.3915750980377,321.7751250267029,322.79175996780396,,,,,,,,,,,,,,,,,,,,,,,,,,,,,,,,,,,,,,,,,06,03,Ducth,A2,True,False,True,False,False,True,True,True,True,True,True,True,No,2,No,No,No,No,2020_Jul_27_1654,nibs_stage_1,3.2.3,59.98332487182604,
2,0,2,0,10,0,10,0,,,,,,,,,,,,,,,,,,,,,,325.82595109939575,None,325.8088988304138,327.80877709388733,327.1919256687164,None,330.5923217773437,331.5923008918762,331.9923326015472,341.9928390979767,342.39289274215696,None,343.7931430339813,344.79299902915955,,,,,,,,,,,,,,,,,,,,,,,,,,,,,,,,,,,,,,,,,06,03,Ducth,A2,True,False,True,False,False,True,True,True,True,True,True,True,No,2,No,No,No,No,2020_Jul_27_1654,nibs_stage_1,3.2.3,59.98332487182604,
2,0,2,0,11,0,11,0,,,,,,,,,,,,,,,,,,,,,,347.8437469005585,None,347.82685294151304,349.8266110420227,349.2100876808166,None,352.61012878417966,None,354.01017179489133,364.0106680393219,364.41099467277525,None,365.82732796669006,366.8276810646057,,,,,,,,,,,,,,,,,,,,,,,,,,,,,,,,,,,,,,,,,06,03,Ducth,A2,True,False,True,False,False,True,True,True,True,True,True,True,No,2,No,No,No,No,2020_Jul_27_1654,nibs_stage_1,3.2.3,59.98332487182604,
2,0,2,0,12,0,12,0,,,,,,,,,,,,,,,,,,,,,,369.86106395721436,None,369.84471979141233,371.84440207481384,371.227743768692,374.22796511650085,374.6279906272888,375.64453196525574,376.02816476821897,386.0454030036926,386.42862977981565,None,387.82860803604126,388.84541392326355,,,,,,,,,,,,,,,,,,,,,,,,,,,,,,,,,,,,,,,,,06,03,Ducth,A2,True,False,True,False,False,True,True,True,True,True,True,True,No,2,No,No,No,No,2020_Jul_27_1654,nibs_stage_1,3.2.3,59.98332487182604,
2,0,2,0,13,0,13,0,,,,,,,,,,,,,,,,,,,,,,391.8786029815674,None,391.8623348712921,393.8622360229492,393.24558367729185,None,396.6459497451782,397.645770072937,398.04577460289,408.0462419986725,408.4461637973785,None,409.84641695022583,410.84652400016785,,,,,,,,,,,,,,,,,,,,,,,,,,,,,,,,,,,,,,,,,06,03,Ducth,A2,True,False,True,False,False,True,True,True,True,True,True,True,No,2,No,No,No,No,2020_Jul_27_1654,nibs_stage_1,3.2.3,59.98332487182604,
2,0,2,0,14,0,14,0,,,,,,,,,,,,,,,,,,,,,,413.8966100215912,None,413.88003578186033,415.87998700141907,415.26336278915403,None,418.6635576725006,419.6638400554657,420.0636116504669,430.06423807144165,430.4641756057739,None,431.86448192596436,432.8643009662628,,,,,,,,,,,,,,,,,,,,,,,,,,,,,,,,,,,,,,,,,06,03,Ducth,A2,True,False,True,False,False,True,True,True,True,True,True,True,No,2,No,No,No,No,2020_Jul_27_1654,nibs_stage_1,3.2.3,59.98332487182604,
2,0,2,0,,,,,0,0,0,0,0,0,0,0,,,,,,,,,,,,,,,,,,,,,,,,,,,,643.2920370101929,None," - Task: Keep seated and relaxed with either      
             opening or closing eyes                  
 - Beep sound with decreasing pitch: Block finish 
",643.2920370101929,None,643.2756436347961,None,"Please keep relaxed and close your eyes.
",666.3264710903168,846.3525531291962,849.7528119087219,None,869.5207250118256,909.555990934372," - Task: Listen to the question& Speak out answer 
 - Melodious beep sound: Trial start              
 - Silent sound (blank): censored word            
 - Beep sound with increasing pitch: Rec. start   
 - Beep sound with decreasing pitch: Rec. finish  
",869.5207250118256,909.555990934372,869.5039929389953,None,908.9391770362854,None,Listen to the question and speak out your answer!,915.6729280948639,None,915.639744567871,917.6729791164398,Auf einer CD sind der Musik oder gesprochener Text gespeichert.,gespeichert,917.0562647819519,921.0734488964081,921.4565147399902,None,932.2571076393127,933.2738099098206,933.6738209724426,None,./data/Subject_06/Session_03/Exp_data/2020_Jul_27_1654/rec_QA_run_02_block_000_trial_000.wav,,,,06,03,Ducth,A2,True,False,True,False,False,True,True,True,True,True,True,True,No,2,No,No,No,No,2020_Jul_27_1654,nibs_stage_1,3.2.3,59.98332487182604,
2,0,2,0,,,,,0,0,0,0,1,0,1,0,,,,,,,,,,,,,,,,,,,,,,,,,,,,,,,,,,,,,,,,,,,,,,,,,Listen to the question and speak out your answer!,936.707582950592,None,936.6907903671264,938.7074129581451,Was bedeutet Pressefreiheit für dich?,bedeutet,938.090714597702,940.3408470153809,940.7241946697235,None,953.2915166854858,None,954.7082788944244,None,./data/Subject_06/Session_03/Exp_data/2020_Jul_27_1654/rec_QA_run_02_block_000_trial_001.wav,,,,06,03,Ducth,A2,True,False,True,False,False,True,True,True,True,True,True,True,No,2,No,No,No,No,2020_Jul_27_1654,nibs_stage_1,3.2.3,59.98332487182604,
2,0,2,0,,,,,0,0,0,0,2,0,2,0,,,,,,,,,,,,,,,,,,,,,,,,,,,,,,,,,,,,,,,,,,,,,,,,,Listen to the question and speak out your answer!,957.7753810882568,None,957.7585613250732,959.7751080989838,Während meines Urlaubs werde ich nach China und Japan reisen.,reisen,959.1585067749023,962.9423499107361,963.325422668457,964.34210896492,974.3426217079162,None,975.7594020366669,None,./data/Subject_06/Session_03/Exp_data/2020_Jul_27_1654/rec_QA_run_02_block_000_trial_002.wav,,,,06,03,Ducth,A2,True,False,True,False,False,True,True,True,True,True,True,True,No,2,No,No,No,No,2020_Jul_27_1654,nibs_stage_1,3.2.3,59.98332487182604,
2,0,2,0,,,,,0,0,0,0,3,0,3,0,,,,,,,,,,,,,,,,,,,,,,,,,,,,,,,,,,,,,,,,,,,,,,,,,Listen to the question and speak out your answer!,978.8269770145416,None,978.7931225776672,980.8263070583344,Muss ich mit dem Bus fahren oder kann ich zu Fuß gehen?,gehen,980.176282787323,983.2597510814667,983.6764427661896,None,995.3771018028259,None,996.7938721179962,None,./data/Subject_06/Session_03/Exp_data/2020_Jul_27_1654/rec_QA_run_02_block_000_trial_003.wav,,,,06,03,Ducth,A2,True,False,True,False,False,True,True,True,True,True,True,True,No,2,No,No,No,No,2020_Jul_27_1654,nibs_stage_1,3.2.3,59.98332487182604,
2,0,2,0,,,,,0,0,0,0,4,0,4,0,,,,,,,,,,,,,,,,,,,,,,,,,,,,,,,,,,,,,,,,,,,,,,,,,Listen to the question and speak out your answer!,999.8612740039825,None,999.827461528778,1001.8607790470123,"Das Mädchen wollte etwas sagen, also hob sie ihre Hand.",sagen,1001.2107726573944,1004.6942250728607,1005.1112107276916,1006.1276330947876,1016.4116248130798,None,1017.8285329341888,None,./data/Subject_06/Session_03/Exp_data/2020_Jul_27_1654/rec_QA_run_02_block_000_trial_004.wav,,,,06,03,Ducth,A2,True,False,True,False,False,True,True,True,True,True,True,True,No,2,No,No,No,No,2020_Jul_27_1654,nibs_stage_1,3.2.3,59.98332487182604,
2,0,2,0,,,,,0,0,0,0,5,0,5,0,,,,,,,,,,,,,,,,,,,,,,,,,,,,,,,,,,,,,,,,,,,,,,,,,Listen to the question and speak out your answer!,1020.8957250118256,None,1020.8618686676025,1022.8951880931854,Rauchen schadet deiner Lunge.,schadet,1022.2451507091522,1024.1619210243225,1024.5786227226258,1025.5953290462494,1037.4459587574006,None,1038.862790107727,None,./data/Subject_06/Session_03/Exp_data/2020_Jul_27_1654/rec_QA_run_02_block_000_trial_005.wav,,,,06,03,Ducth,A2,True,False,True,False,False,True,True,True,True,True,True,True,No,2,No,No,No,No,2020_Jul_27_1654,nibs_stage_1,3.2.3,59.98332487182604,
2,0,2,0,,,,,0,0,0,0,6,0,6,0,,,,,,,,,,,,,,,,,,,,,,,,,,,,,,,,,,,,,,,,,,,,,,,,,Listen to the question and speak out your answer!,1041.9300711154938,None,1041.8962414741518,1043.9296259880066,Zu Ostern gibt es für Kinder Ostereier und Süßigkeiten.,gibt,1043.3129176139832,None,1047.4466008186341,None,1058.5138927936555,None,1059.9304749965668,None,./data/Subject_06/Session_03/Exp_data/2020_Jul_27_1654/rec_QA_run_02_block_000_trial_006.wav,,,,06,03,Ducth,A2,True,False,True,False,False,True,True,True,True,True,True,True,No,2,No,No,No,No,2020_Jul_27_1654,nibs_stage_1,3.2.3,59.98332487182604,
2,0,2,0,,,,,0,0,0,0,7,0,7,0,,,,,,,,,,,,,,,,,,,,,,,,,,,,,,,,,,,,,,,,,,,,,,,,,Listen to the question and speak out your answer!,1062.9651210308075,None,1062.9474763393403,1064.9640591144562,Der Detektiv ist ihm bis zu seinem Haus gefolgt.,gefolgt,1064.3474296569825,1067.3976321220398,1067.7475546836854,None,1079.548174762726,1080.5648999214172,1080.9649059772491,None,./data/Subject_06/Session_03/Exp_data/2020_Jul_27_1654/rec_QA_run_02_block_000_trial_007.wav,,,,06,03,Ducth,A2,True,False,True,False,False,True,True,True,True,True,True,True,No,2,No,No,No,No,2020_Jul_27_1654,nibs_stage_1,3.2.3,59.98332487182604,
2,0,2,0,,,,,0,0,0,0,8,0,8,0,,,,,,,,,,,,,,,,,,,,,,,,,,,,,,,,,,,,,,,,,,,,,,,,,Listen to the question and speak out your answer!,1084.0161700248718,None,1083.9985394954683,1086.015310049057,Meine Großtante starb letztes Jahr und wurde neben ihrem Mann begraben.,begraben,1085.3984736442567,None,1090.065392637253,None,1100.5992666721345,None,1102.0160150527954,None,./data/Subject_06/Session_03/Exp_data/2020_Jul_27_1654/rec_QA_run_02_block_000_trial_008.wav,,,,06,03,Ducth,A2,True,False,True,False,False,True,True,True,True,True,True,True,No,2,No,No,No,No,2020_Jul_27_1654,nibs_stage_1,3.2.3,59.98332487182604,
2,0,2,0,,,,,0,0,0,0,9,0,9,0,,,,,,,,,,,,,,,,,,,,,,,,,,,,,,,,,,,,,,,,,,,,,,,,,Listen to the question and speak out your answer!,1105.083487033844,None,1105.0495646476747,1107.082955121994,Ich möchte mir ein Buch aus der Bibliothek leihen.,leihen,1106.466161632538,None,1109.7330898284913,None,1121.6670567035676,None,1123.0837681293488,None,./data/Subject_06/Session_03/Exp_data/2020_Jul_27_1654/rec_QA_run_02_block_000_trial_009.wav,,,,06,03,Ducth,A2,True,False,True,False,False,True,True,True,True,True,True,True,No,2,No,No,No,No,2020_Jul_27_1654,nibs_stage_1,3.2.3,59.98332487182604,
2,0,2,0,,,,,0,0,0,0,10,0,10,0,,,,,,,,,,,,,,,,,,,,,,,,,,,,,,,,,,,,,,,,,,,,,,,,,Listen to the question and speak out your answer!,1126.1178541183472,None,1126.084096479416,1128.1173961162567,Im Frühling besuchen viele Touristen unserer Hauptstadt.,besuchen,1127.500710630417,1131.1175289154053,1131.4675716400147,None,1142.701525592804,1143.7182750701904,1144.1182270050049,None,./data/Subject_06/Session_03/Exp_data/2020_Jul_27_1654/rec_QA_run_02_block_000_trial_010.wav,,,,06,03,Ducth,A2,True,False,True,False,False,True,True,True,True,True,True,True,No,2,No,No,No,No,2020_Jul_27_1654,nibs_stage_1,3.2.3,59.98332487182604,
2,0,2,0,,,,,0,0,0,0,11,0,11,0,,,,,,,,,,,,,,,,,,,,,,,,,,,,,,,,,,,,,,,,,,,,,,,,,Listen to the question and speak out your answer!,1147.1690690517426,None,1147.1351472854615,1149.1684889793396,Das iPhone wurde von Kalifornien entworfen und in China hergestellt. ,hergestellt,1148.5186997890473,None,1153.3520576000215,1154.3686919212341,1163.7359258174897,None,1165.1526889801025,None,./data/Subject_06/Session_03/Exp_data/2020_Jul_27_1654/rec_QA_run_02_block_000_trial_011.wav,,,,06,03,Ducth,A2,True,False,True,False,False,True,True,True,True,True,True,True,No,2,No,No,No,No,2020_Jul_27_1654,nibs_stage_1,3.2.3,59.98332487182604,
2,0,2,0,,,,,0,0,0,0,12,0,12,0,,,,,,,,,,,,,,,,,,,,,,,,,,,,,,,,,,,,,,,,,,,,,,,,,Listen to the question and speak out your answer!,1168.22012591362,None,1168.1863484859468,1170.2196040153503,Ich möchte gerne ein Zimmer im Hilton-Hotel reservieren.,reservieren,1169.5695787906648,1172.8529970645905,1173.2697726726533,None,1184.7703706264497,1185.7871420383453,1186.1871221065521,None,./data/Subject_06/Session_03/Exp_data/2020_Jul_27_1654/rec_QA_run_02_block_000_trial_012.wav,,,,06,03,Ducth,A2,True,False,True,False,False,True,True,True,True,True,True,True,No,2,No,No,No,No,2020_Jul_27_1654,nibs_stage_1,3.2.3,59.98332487182604,
2,0,2,0,,,,,0,0,0,0,13,0,13,0,,,,,,,,,,,,,,,,,,,,,,,,,,,,,,,,,,,,,,,,,,,,,,,,,Listen to the question and speak out your answer!,1189.254583120346,None,1189.2207515716555,1191.2540678977966,"Wenn Sie mit dem Vertrag nicht zufrieden sind, können Sie ihn vor seinem Ablauf kündigen.",kündigen,1190.6040276527406,None,1195.7376326560975,None,1205.804831647873,1206.821536064148,1207.2215600013733,None,./data/Subject_06/Session_03/Exp_data/2020_Jul_27_1654/rec_QA_run_02_block_000_trial_013.wav,,,,06,03,Ducth,A2,True,False,True,False,False,True,True,True,True,True,True,True,No,2,No,No,No,No,2020_Jul_27_1654,nibs_stage_1,3.2.3,59.98332487182604,
2,0,2,0,,,,,0,0,0,0,14,0,14,0,,,,,,,,,,,,,,,,,,,,,,,,,,,,,,,,,,,,,,,,,,,,,,,,,Listen to the question and speak out your answer!,1210.289274930954,None,1210.2718512535096,1212.2884929180145,"Obst sollte man täglich essen, weil es wegen den Vitaminen sehr gesund ist.",essen,1211.671788597107,None,1216.4720577239991,1217.4887659549713,1226.8726276397706,None,1228.2894730567932,None,./data/Subject_06/Session_03/Exp_data/2020_Jul_27_1654/rec_QA_run_02_block_000_trial_014.wav,,,,06,03,Ducth,A2,True,False,True,False,False,True,True,True,True,True,True,True,No,2,No,No,No,No,2020_Jul_27_1654,nibs_stage_1,3.2.3,59.98332487182604,
2,0,2,0,,,,,0,0,0,0,15,0,15,0,,,,,,,,,,,,,,,,,,,,,,,,,,,,,,,,,,,,,,,,,,,,,,,,,Listen to the question and speak out your answer!,1231.356780052185,None,1231.322968530655,1233.3562800884247,Die Kinder haben ihrer Mutter im Haushalt geholfen.,geholfen,1232.7395726680757,None,1235.9730957984925,None,1247.9403797626496,None,1249.3571209907532,None,./data/Subject_06/Session_03/Exp_data/2020_Jul_27_1654/rec_QA_run_02_block_000_trial_015.wav,,,,06,03,Ducth,A2,True,False,True,False,False,True,True,True,True,True,True,True,No,2,No,No,No,No,2020_Jul_27_1654,nibs_stage_1,3.2.3,59.98332487182604,
2,0,2,0,,,,,0,0,0,0,16,0,16,0,,,,,,,,,,,,,,,,,,,,,,,,,,,,,,,,,,,,,,,,,,,,,,,,,Listen to the question and speak out your answer!,1252.3923420906067,None,1252.374081325531,1254.3908340930939,Der Wirkstoff im Kaffee heißt Koffein.,heißt,1253.7740327358247,None,1256.7075156211854,None,1268.9748236179353,1269.991532087326,1270.3915541172028,None,./data/Subject_06/Session_03/Exp_data/2020_Jul_27_1654/rec_QA_run_02_block_000_trial_016.wav,,,,06,03,Ducth,A2,True,False,True,False,False,True,True,True,True,True,True,True,No,2,No,No,No,No,2020_Jul_27_1654,nibs_stage_1,3.2.3,59.98332487182604,
2,0,2,0,,,,,0,0,0,0,17,0,17,0,,,,,,,,,,,,,,,,,,,,,,,,,,,,,,,,,,,,,,,,,,,,,,,,,Listen to the question and speak out your answer!,1273.4609410762787,None,1273.4418463230134,1275.4585099220276,"Wissen Sie, wer als erster Bergsteiger den Mount Everest bestiegen hat?",bestiegen,1274.8418027400971,1279.225359916687,1279.6087197303773,None,1290.042633676529,1291.0593280792236,1291.4592499732971,None,./data/Subject_06/Session_03/Exp_data/2020_Jul_27_1654/rec_QA_run_02_block_000_trial_017.wav,,,,06,03,Ducth,A2,True,False,True,False,False,True,True,True,True,True,True,True,No,2,No,No,No,No,2020_Jul_27_1654,nibs_stage_1,3.2.3,59.98332487182604,
2,0,2,0,,,,,0,0,0,0,18,0,18,0,,,,,,,,,,,,,,,,,,,,,,,,,,,,,,,,,,,,,,,,,,,,,,,,,Listen to the question and speak out your answer!,1294.526720046997,None,1294.492959547043,1296.5262739658356,"Oma hat Probleme mit den Zähnen, aber sie fürchtet sich vorm Zahnarzt.",fürchtet,1295.8763576984406,1300.5264859199524,1300.9098416805268,None,1311.0770577430726,None,1312.4937629699707,None,./data/Subject_06/Session_03/Exp_data/2020_Jul_27_1654/rec_QA_run_02_block_000_trial_018.wav,,,,06,03,Ducth,A2,True,False,True,False,False,True,True,True,True,True,True,True,No,2,No,No,No,No,2020_Jul_27_1654,nibs_stage_1,3.2.3,59.98332487182604,
2,0,2,0,,,,,0,0,0,0,19,0,19,0,,,,,,,,,,,,,,,,,,,,,,,,,,,,,,,,,,,,,,,,,,,,,,,,,Listen to the question and speak out your answer!,1315.5606849193573,None,1315.5274346351625,1317.560996055603,"Wir haben eine Testversion heruntergeladen, um die Nutzbarkeit der Software zu testen.",heruntergeladen,1316.9442967414857,1322.2942900657654,1322.6443068027497,1323.6610260009766,1332.1448086738587,None,1333.5616080760956,None,./data/Subject_06/Session_03/Exp_data/2020_Jul_27_1654/rec_QA_run_02_block_000_trial_019.wav,,,,06,03,Ducth,A2,True,False,True,False,False,True,True,True,True,True,True,True,No,2,No,No,No,No,2020_Jul_27_1654,nibs_stage_1,3.2.3,59.98332487182604,
2,0,2,0,,,,,0,0,0,0,20,0,20,0,,,,,,,,,,,,,,,,,,,,,,,,,,,,,,,,,,,,,,,,,,,,,,,,,Listen to the question and speak out your answer!,1336.5956768989563,None,1336.5618584632875,1338.5950620174408,Planeten kreisen um eine Sonne.,kreisen,1337.945034646988,1340.128566980362,1340.5452627182008,1341.5619750022888,1353.145906829834,None,1354.5626640319824,None,./data/Subject_06/Session_03/Exp_data/2020_Jul_27_1654/rec_QA_run_02_block_000_trial_020.wav,,,,06,03,Ducth,A2,True,False,True,False,False,True,True,True,True,True,True,True,No,2,No,No,No,No,2020_Jul_27_1654,nibs_stage_1,3.2.3,59.98332487182604,
2,0,2,0,,,,,0,0,0,0,21,0,21,0,,,,,,,,,,,,,,,,,,,,,,,,,,,,,,,,,,,,,,,,,,,,,,,,,Listen to the question and speak out your answer!,1357.6301538944244,None,1357.5962634563448,1359.6295969486237,Am Anfang sind die Brüder Wright mit Gleitflugzeugen geflogen.,geflogen,1359.0128787994386,1362.629770040512,1363.0132216453553,1364.0298368930817,1374.2136966228486,None,1375.630469083786,None,./data/Subject_06/Session_03/Exp_data/2020_Jul_27_1654/rec_QA_run_02_block_000_trial_021.wav,,,,06,03,Ducth,A2,True,False,True,False,False,True,True,True,True,True,True,True,No,2,No,No,No,No,2020_Jul_27_1654,nibs_stage_1,3.2.3,59.98332487182604,
2,0,2,0,,,,,0,0,0,0,22,0,22,0,,,,,,,,,,,,,,,,,,,,,,,,,,,,,,,,,,,,,,,,,,,,,,,,,Listen to the question and speak out your answer!,1378.6640410423279,None,1378.6307385444643,1380.6640379428864,Der Arbeiter repariert eine Panne.,repariert,1380.047339820862,1382.3641259670258,1382.7475937843324,None,1395.2481197357179,None,1396.6648569107056,None,./data/Subject_06/Session_03/Exp_data/2020_Jul_27_1654/rec_QA_run_02_block_000_trial_022.wav,,,,06,03,Ducth,A2,True,False,True,False,False,True,True,True,True,True,True,True,No,2,No,No,No,No,2020_Jul_27_1654,nibs_stage_1,3.2.3,59.98332487182604,
2,0,2,0,,,,,0,0,0,0,23,0,23,0,,,,,,,,,,,,,,,,,,,,,,,,,,,,,,,,,,,,,,,,,,,,,,,,,Listen to the question and speak out your answer!,1399.6985039710999,None,1399.681849193573,1401.6985409259796,Wir müssen jemanden mit mehr Erfahrung für diese wichtige Position einstellen.,einstellen,1401.0817677021028,1405.532287120819,1405.9153605937959,1406.9320430755615,1416.2827087879182,None,1417.6993420124054,None,./data/Subject_06/Session_03/Exp_data/2020_Jul_27_1654/rec_QA_run_02_block_000_trial_023.wav,,,,06,03,Ducth,A2,True,False,True,False,False,True,True,True,True,True,True,True,No,2,No,No,No,No,2020_Jul_27_1654,nibs_stage_1,3.2.3,59.98332487182604,
2,0,2,0,,,,,0,0,0,0,24,0,24,0,,,,,,,,,,,,,,,,,,,,,,,,,,,,,,,,,,,,,,,,,,,,,,,,,Listen to the question and speak out your answer!,1420.766618013382,None,1420.7496373176575,1422.7662510871887,"Früh übt sich, wer ein Meister werden will.",werden,1422.149574661255,1424.8996949195862,1425.2832037448884,None,1437.3503967761994,None,1438.7671139240265,None,./data/Subject_06/Session_03/Exp_data/2020_Jul_27_1654/rec_QA_run_02_block_000_trial_024.wav,,,,06,03,Ducth,A2,True,False,True,False,False,True,True,True,True,True,True,True,No,2,No,No,No,No,2020_Jul_27_1654,nibs_stage_1,3.2.3,59.98332487182604,
2,0,2,0,,,,,0,0,0,0,,,,,,,,,,,,,,,,,,,,,,,,,,,,,,,,,,,,,,,,,,1442.784110069275,None,,,,,,,,,,,,,,,,,,,,,,,,,,,,,06,03,Ducth,A2,True,False,True,False,False,True,True,True,True,True,True,True,No,2,No,No,No,No,2020_Jul_27_1654,nibs_stage_1,3.2.3,59.98332487182604,
2,0,2,0,,,,,1,0,1,0,0,0,0,0,,,,,,,,,,,,,,,,,,,,,,,,,,,,,,,,,,,,,,,,,,,,,,,,,Listen to the question and speak out your answer!,1459.1521201133728,None,1459.118509578705,1461.1516189575195,Das Geheimnis darfst du niemand sagen.,sagen,1460.5015946865083,1462.8516919612885,1463.2353316783906,None,1475.7024077415467,None,1477.119108915329,None,./data/Subject_06/Session_03/Exp_data/2020_Jul_27_1654/rec_QA_run_02_block_001_trial_000.wav,,,,06,03,Ducth,A2,True,False,True,False,False,True,True,True,True,True,True,True,No,2,No,No,No,No,2020_Jul_27_1654,nibs_stage_1,3.2.3,59.98332487182604,
2,0,2,0,,,,,1,0,1,0,1,0,1,0,,,,,,,,,,,,,,,,,,,,,,,,,,,,,,,,,,,,,,,,,,,,,,,,,Listen to the question and speak out your answer!,1480.1877119541168,None,1480.1694333076478,1482.1860299110413,Mit meinem Wagen kann ich nach Tibet reisen.,reisen,1481.569348716736,None,1484.5696276664735,None,1496.7701417446137,None,1498.1868999004364,None,./data/Subject_06/Session_03/Exp_data/2020_Jul_27_1654/rec_QA_run_02_block_001_trial_001.wav,,,,06,03,Ducth,A2,True,False,True,False,False,True,True,True,True,True,True,True,No,2,No,No,No,No,2020_Jul_27_1654,nibs_stage_1,3.2.3,59.98332487182604,
2,0,2,0,,,,,1,0,1,0,2,0,2,0,,,,,,,,,,,,,,,,,,,,,,,,,,,,,,,,,,,,,,,,,,,,,,,,,Listen to the question and speak out your answer!,1501.2540640830994,None,1501.2372002124787,1503.2538189888,Der Prüfer hat die Erfüllung gesetzlicher Auflagen durch das Unternehmen kontrolliert.,kontrolliert,1502.637138748169,None,1507.8040677547456,1508.8207840919495,1517.8379026889802,None,1519.254653930664,None,./data/Subject_06/Session_03/Exp_data/2020_Jul_27_1654/rec_QA_run_02_block_001_trial_002.wav,,,,06,03,Ducth,A2,True,False,True,False,False,True,True,True,True,True,True,True,No,2,No,No,No,No,2020_Jul_27_1654,nibs_stage_1,3.2.3,59.98332487182604,
2,0,2,0,,,,,1,0,1,0,3,0,3,0,,,,,,,,,,,,,,,,,,,,,,,,,,,,,,,,,,,,,,,,,,,,,,,,,Listen to the question and speak out your answer!,1522.2717049121857,None,1522.2383197784425,1524.2716209888458,Wie hoch kosten der Wahren ？,kosten,1523.621567630768,1525.4383289813995,1525.8550116062165,None,1538.8224436283112,None,1540.2391040325165,None,./data/Subject_06/Session_03/Exp_data/2020_Jul_27_1654/rec_QA_run_02_block_001_trial_003.wav,,,,06,03,Ducth,A2,True,False,True,False,False,True,True,True,True,True,True,True,No,2,No,No,No,No,2020_Jul_27_1654,nibs_stage_1,3.2.3,59.98332487182604,
2,0,2,0,,,,,1,0,1,0,4,0,4,0,,,,,,,,,,,,,,,,,,,,,,,,,,,,,,,,,,,,,,,,,,,,,,,,,Listen to the question and speak out your answer!,1543.3231101036072,None,1543.2894131660462,1545.322725057602,Bald wird in den USA ein neuer Präsident gewählt.,gewählt,1544.6726786136628,1547.823137998581,1548.2061938285829,None,1559.8901616573335,None,1561.306885957718,None,./data/Subject_06/Session_03/Exp_data/2020_Jul_27_1654/rec_QA_run_02_block_001_trial_004.wav,,,,06,03,Ducth,A2,True,False,True,False,False,True,True,True,True,True,True,True,No,2,No,No,No,No,2020_Jul_27_1654,nibs_stage_1,3.2.3,59.98332487182604,
2,0,2,0,,,,,1,0,1,0,5,0,5,0,,,,,,,,,,,,,,,,,,,,,,,,,,,,,,,,,,,,,,,,,,,,,,,,,Listen to the question and speak out your answer!,1564.3743391036987,None,1564.340540456772,1566.373841047287,Ich entschuldige bitte meine Verspätung.,entschuldige,1565.7237895965577,None,1568.457313680649,None,1580.9247967243195,1581.9413189888,1582.3413290977478,None,./data/Subject_06/Session_03/Exp_data/2020_Jul_27_1654/rec_QA_run_02_block_001_trial_005.wav,,,,06,03,Ducth,A2,True,False,True,False,False,True,True,True,True,True,True,True,No,2,No,No,No,No,2020_Jul_27_1654,nibs_stage_1,3.2.3,59.98332487182604,
2,0,2,0,,,,,1,0,1,0,6,0,6,0,,,,,,,,,,,,,,,,,,,,,,,,,,,,,,,,,,,,,,,,,,,,,,,,,Listen to the question and speak out your answer!,1585.4096500873566,None,1585.3916382312775,1587.4082651138306,Wer soll den Geschirrspüler einräumen?,einräumen,1586.791560792923,None,1589.3583787918092,None,1601.9923666954041,None,1603.4092659950256,None,./data/Subject_06/Session_03/Exp_data/2020_Jul_27_1654/rec_QA_run_02_block_001_trial_006.wav,,,,06,03,Ducth,A2,True,False,True,False,False,True,True,True,True,True,True,True,No,2,No,No,No,No,2020_Jul_27_1654,nibs_stage_1,3.2.3,59.98332487182604,
2,0,2,0,,,,,1,0,1,0,7,0,7,0,,,,,,,,,,,,,,,,,,,,,,,,,,,,,,,,,,,,,,,,,,,,,,,,,Listen to the question and speak out your answer!,1606.4764730930328,None,1606.4427955627443,1608.4760220050812,Der Autohändler hat auf der Messe zehn Sportwagen eingekauft.,eingekauft,1607.8593646526338,1611.6428620815277,1612.0263246536256,None,1623.0601586341859,None,1624.4769160747528,None,./data/Subject_06/Session_03/Exp_data/2020_Jul_27_1654/rec_QA_run_02_block_001_trial_007.wav,,,,06,03,Ducth,A2,True,False,True,False,False,True,True,True,True,True,True,True,No,2,No,No,No,No,2020_Jul_27_1654,nibs_stage_1,3.2.3,59.98332487182604,
2,0,2,0,,,,,1,0,1,0,8,0,8,0,,,,,,,,,,,,,,,,,,,,,,,,,,,,,,,,,,,,,,,,,,,,,,,,,Listen to the question and speak out your answer!,1627.510982990265,None,1627.4772005558016,1629.51047706604,Wir haben während des Urlaubs ein gemütliches Zimmer in Meeresnähe gemietet.,gemietet,1628.8940326213838,None,1633.7940408229829,None,1644.0946427822114,1645.1113440990448,1645.5113151073456,None,./data/Subject_06/Session_03/Exp_data/2020_Jul_27_1654/rec_QA_run_02_block_001_trial_008.wav,,,,06,03,Ducth,A2,True,False,True,False,False,True,True,True,True,True,True,True,No,2,No,No,No,No,2020_Jul_27_1654,nibs_stage_1,3.2.3,59.98332487182604,
2,0,2,0,,,,,1,0,1,0,9,0,9,0,,,,,,,,,,,,,,,,,,,,,,,,,,,,,,,,,,,,,,,,,,,,,,,,,Listen to the question and speak out your answer!,1648.5454471111298,None,1648.5117445468904,1650.5449299812317,"Chris hat Zahnschmerzen, aber er fürchtet sich vor dem Zahnarzt.",fürchtet,1649.8948937892915,1654.0452089309692,1654.428467655182,None,1665.0956346035005,None,1666.5124270915985,None,./data/Subject_06/Session_03/Exp_data/2020_Jul_27_1654/rec_QA_run_02_block_001_trial_009.wav,,,,06,03,Ducth,A2,True,False,True,False,False,True,True,True,True,True,True,True,No,2,No,No,No,No,2020_Jul_27_1654,nibs_stage_1,3.2.3,59.98332487182604,
2,0,2,0,,,,,1,0,1,0,10,0,10,0,,,,,,,,,,,,,,,,,,,,,,,,,,,,,,,,,,,,,,,,,,,,,,,,,Listen to the question and speak out your answer!,1669.5793600082397,None,1669.5460324764254,1671.5793619155884,Mein Freund führt ein erfolgreiches Geschäft.,führt,1670.9626587867738,1673.6794619560242,1674.0627397537232,None,1686.1634537220002,1687.1801879405975,1687.58021402359,None,./data/Subject_06/Session_03/Exp_data/2020_Jul_27_1654/rec_QA_run_02_block_001_trial_010.wav,,,,06,03,Ducth,A2,True,False,True,False,False,True,True,True,True,True,True,True,No,2,No,No,No,No,2020_Jul_27_1654,nibs_stage_1,3.2.3,59.98332487182604,
2,0,2,0,,,,,1,0,1,0,11,0,11,0,,,,,,,,,,,,,,,,,,,,,,,,,,,,,,,,,,,,,,,,,,,,,,,,,Listen to the question and speak out your answer!,1690.6147639751434,None,1690.5971781730652,1692.613928079605,Der Schmied klopft immer wieder mit dem Hammer auf das heiße Eisen.,klopft,1691.9637857913972,1695.580631017685,1695.9973827838899,None,1707.1644946575166,None,1708.5813341140747,None,./data/Subject_06/Session_03/Exp_data/2020_Jul_27_1654/rec_QA_run_02_block_001_trial_011.wav,,,,06,03,Ducth,A2,True,False,True,False,False,True,True,True,True,True,True,True,No,2,No,No,No,No,2020_Jul_27_1654,nibs_stage_1,3.2.3,59.98332487182604,
2,0,2,0,,,,,1,0,1,0,12,0,12,0,,,,,,,,,,,,,,,,,,,,,,,,,,,,,,,,,,,,,,,,,,,,,,,,,Listen to the question and speak out your answer!,1711.6654269695282,None,1711.63177318573,1713.6649060249329,Marco hat gestern einen Brief an seine Eltern geschrieben.,geschrieben,1713.0148977279664,1716.365070104599,1716.781719827652,1717.7984659671783,1728.2156747817994,1729.2325019836426,1729.6323521137238,None,./data/Subject_06/Session_03/Exp_data/2020_Jul_27_1654/rec_QA_run_02_block_001_trial_012.wav,,,,06,03,Ducth,A2,True,False,True,False,False,True,True,True,True,True,True,True,No,2,No,No,No,No,2020_Jul_27_1654,nibs_stage_1,3.2.3,59.98332487182604,
2,0,2,0,,,,,1,0,1,0,13,0,13,0,,,,,,,,,,,,,,,,,,,,,,,,,,,,,,,,,,,,,,,,,,,,,,,,,Listen to the question and speak out your answer!,1732.6998801231384,None,1732.6660635948183,1734.6993680000305,Er pflegte jeden Abend auf Pferden zu reiten und durch die Wälder zu gehen.,reiten,1734.082758808136,None,1738.8828197956086,1739.899619102478,1749.2834757804872,1750.300164937973,1750.7001910209656,None,./data/Subject_06/Session_03/Exp_data/2020_Jul_27_1654/rec_QA_run_02_block_001_trial_013.wav,,,,06,03,Ducth,A2,True,False,True,False,False,True,True,True,True,True,True,True,No,2,No,No,No,No,2020_Jul_27_1654,nibs_stage_1,3.2.3,59.98332487182604,
2,0,2,0,,,,,1,0,1,0,14,0,14,0,,,,,,,,,,,,,,,,,,,,,,,,,,,,,,,,,,,,,,,,,,,,,,,,,Listen to the question and speak out your answer!,1753.7338299751282,None,1753.700495529175,1755.7338140010834,Er ist ein Experte für Computer und kennt alle technischen Details.,kennt,1755.0837687492372,1759.2006731033325,1759.5839888095857,None,1770.2845777511598,1771.3014030456543,1771.7013669013977,None,./data/Subject_06/Session_03/Exp_data/2020_Jul_27_1654/rec_QA_run_02_block_001_trial_014.wav,,,,06,03,Ducth,A2,True,False,True,False,False,True,True,True,True,True,True,True,No,2,No,No,No,No,2020_Jul_27_1654,nibs_stage_1,3.2.3,59.98332487182604,
2,0,2,0,,,,,1,0,1,0,15,0,15,0,,,,,,,,,,,,,,,,,,,,,,,,,,,,,,,,,,,,,,,,,,,,,,,,,Listen to the question and speak out your answer!,1774.7682559490204,None,1774.734967517853,1776.7682440280914,Der Baum hängt voller Früchte.,hängt,1776.118196630478,1778.0349628925323,1778.4517597198487,None,1791.319024705887,None,1792.7357499599457,None,./data/Subject_06/Session_03/Exp_data/2020_Jul_27_1654/rec_QA_run_02_block_001_trial_015.wav,,,,06,03,Ducth,A2,True,False,True,False,False,True,True,True,True,True,True,True,No,2,No,No,No,No,2020_Jul_27_1654,nibs_stage_1,3.2.3,59.98332487182604,
2,0,2,0,,,,,1,0,1,0,16,0,16,0,,,,,,,,,,,,,,,,,,,,,,,,,,,,,,,,,,,,,,,,,,,,,,,,,Listen to the question and speak out your answer!,1795.803461074829,None,1795.7860731601716,1797.8027579784393,Du muss deine schmutzige Kleidung in der Wäscherei waschen.,waschen,1797.1859797477723,None,1800.7195548057557,None,1812.3867777824403,None,1813.8035271167755,None,./data/Subject_06/Session_03/Exp_data/2020_Jul_27_1654/rec_QA_run_02_block_001_trial_016.wav,,,,06,03,Ducth,A2,True,False,True,False,False,True,True,True,True,True,True,True,No,2,No,No,No,No,2020_Jul_27_1654,nibs_stage_1,3.2.3,59.98332487182604,
2,0,2,0,,,,,1,0,1,0,17,0,17,0,,,,,,,,,,,,,,,,,,,,,,,,,,,,,,,,,,,,,,,,,,,,,,,,,Listen to the question and speak out your answer!,1816.8712179660797,None,1816.8538302898407,1818.8704590797424,Kann man gekeimte Kartoffeln noch essen?,essen,1818.2537607192994,1820.5374829769135,1820.9206446647645,None,1833.4545687675477,None,1834.8714010715485,None,./data/Subject_06/Session_03/Exp_data/2020_Jul_27_1654/rec_QA_run_02_block_001_trial_017.wav,,,,06,03,Ducth,A2,True,False,True,False,False,True,True,True,True,True,True,True,No,2,No,No,No,No,2020_Jul_27_1654,nibs_stage_1,3.2.3,59.98332487182604,
2,0,2,0,,,,,1,0,1,0,18,0,18,0,,,,,,,,,,,,,,,,,,,,,,,,,,,,,,,,,,,,,,,,,,,,,,,,,Listen to the question and speak out your answer!,1837.905070066452,None,1837.8882722377778,1839.9048941135406,"Das Fleisch wird klein geschnitten, und dann in der Pfanne gebraten.",gebraten,1839.288213634491,1843.0717329978943,1843.4550878047944,None,1854.4890176296235,None,1855.9057779312134,None,./data/Subject_06/Session_03/Exp_data/2020_Jul_27_1654/rec_QA_run_02_block_001_trial_018.wav,,,,06,03,Ducth,A2,True,False,True,False,False,True,True,True,True,True,True,True,No,2,No,No,No,No,2020_Jul_27_1654,nibs_stage_1,3.2.3,59.98332487182604,
2,0,2,0,,,,,1,0,1,0,19,0,19,0,,,,,,,,,,,,,,,,,,,,,,,,,,,,,,,,,,,,,,,,,,,,,,,,,Listen to the question and speak out your answer!,1858.9731109142303,None,1858.93937664032,1860.9726738929749,"Das Essen riecht so gut, was kochst du heute?",kochst,1860.3229226112367,None,1863.5227967739106,None,1875.5234376430512,None,1876.9402101039886,None,./data/Subject_06/Session_03/Exp_data/2020_Jul_27_1654/rec_QA_run_02_block_001_trial_019.wav,,,,06,03,Ducth,A2,True,False,True,False,False,True,True,True,True,True,True,True,No,2,No,No,No,No,2020_Jul_27_1654,nibs_stage_1,3.2.3,59.98332487182604,
2,0,2,0,,,,,1,0,1,0,20,0,20,0,,,,,,,,,,,,,,,,,,,,,,,,,,,,,,,,,,,,,,,,,,,,,,,,,Listen to the question and speak out your answer!,1880.0079329013824,None,1879.9904801368714,1882.0072360038757,Singapore liegt in Südostasien.,liegt,1881.3570837020875,None,1884.2238956928254,None,1896.5578907966615,1897.5746021270752,1897.9746448993683,None,./data/Subject_06/Session_03/Exp_data/2020_Jul_27_1654/rec_QA_run_02_block_001_trial_020.wav,,,,06,03,Ducth,A2,True,False,True,False,False,True,True,True,True,True,True,True,No,2,No,No,No,No,2020_Jul_27_1654,nibs_stage_1,3.2.3,59.98332487182604,
2,0,2,0,,,,,1,0,1,0,21,0,21,0,,,,,,,,,,,,,,,,,,,,,,,,,,,,,,,,,,,,,,,,,,,,,,,,,Listen to the question and speak out your answer!,1901.0415229797363,None,1901.0082414627077,1903.041748046875,Ich würde sofort meinen Job kündigen und nie mehr arbeiten.,kündigen,1902.4248396396638,None,1906.3584376811982,None,1917.5923077106477,None,1919.0090401172638,None,./data/Subject_06/Session_03/Exp_data/2020_Jul_27_1654/rec_QA_run_02_block_001_trial_021.wav,,,,06,03,Ducth,A2,True,False,True,False,False,True,True,True,True,True,True,True,No,2,No,No,No,No,2020_Jul_27_1654,nibs_stage_1,3.2.3,59.98332487182604,
2,0,2,0,,,,,1,0,1,0,22,0,22,0,,,,,,,,,,,,,,,,,,,,,,,,,,,,,,,,,,,,,,,,,,,,,,,,,Listen to the question and speak out your answer!,1922.0764400959015,None,1922.042729663849,1924.0759909152985,Mein Sohn wurde letztes Jahr geboren.,geboren,1923.4259647369386,None,1926.192775630951,1927.209489107132,1938.6268037796021,None,1940.0435180664062,None,./data/Subject_06/Session_03/Exp_data/2020_Jul_27_1654/rec_QA_run_02_block_001_trial_022.wav,,,,06,03,Ducth,A2,True,False,True,False,False,True,True,True,True,True,True,True,No,2,No,No,No,No,2020_Jul_27_1654,nibs_stage_1,3.2.3,59.98332487182604,
2,0,2,0,,,,,1,0,1,0,23,0,23,0,,,,,,,,,,,,,,,,,,,,,,,,,,,,,,,,,,,,,,,,,,,,,,,,,Listen to the question and speak out your answer!,1943.1275379657745,None,1943.0938093185425,1945.1271018981934,Sie hat die Äpfel vom Baum geholt.,geholt,1944.477081680298,1946.6271889209747,1947.010536813736,1948.027249097824,1959.677888774872,None,1961.0946049690247,None,./data/Subject_06/Session_03/Exp_data/2020_Jul_27_1654/rec_QA_run_02_block_001_trial_023.wav,,,,06,03,Ducth,A2,True,False,True,False,False,True,True,True,True,True,True,True,No,2,No,No,No,No,2020_Jul_27_1654,nibs_stage_1,3.2.3,59.98332487182604,
2,0,2,0,,,,,1,0,1,0,24,0,24,0,,,,,,,,,,,,,,,,,,,,,,,,,,,,,,,,,,,,,,,,,,,,,,,,,Listen to the question and speak out your answer!,1964.1627280712128,None,1964.144910287857,1966.1615419387817,Der Donau fließt ins Schwarze Meer.,fließt,1965.544854784012,1967.8616499900818,1968.2449046611787,1969.2616999149323,1980.7457658290864,None,1982.1623940467834,None,./data/Subject_06/Session_03/Exp_data/2020_Jul_27_1654/rec_QA_run_02_block_001_trial_024.wav,,,,06,03,Ducth,A2,True,False,True,False,False,True,True,True,True,True,True,True,No,2,No,No,No,No,2020_Jul_27_1654,nibs_stage_1,3.2.3,59.98332487182604,
2,0,2,0,,,,,1,0,1,0,,,,,,,,,,,,,,,,,,,,,,,,,,,,,,,,,,,,,,,,,,1986.212613105774,None,,,,,,,,,,,,,,,,,,,,,,,,,,,,,06,03,Ducth,A2,True,False,True,False,False,True,True,True,True,True,True,True,No,2,No,No,No,No,2020_Jul_27_1654,nibs_stage_1,3.2.3,59.98332487182604,
2,0,2,0,,,,,,,,,,,,,,,,,,,,,,,,,,,,,,,,,,,,,,,,,,,,,,,,,,,,,,,,,,,,,,,,,,,,,,,,,,,,,Please remain seated until further instruction via the earphone.,71.0952570438385,None,06,03,Ducth,A2,True,False,True,False,False,True,True,True,True,True,True,True,No,2,No,No,No,No,2020_Jul_27_1654,nibs_stage_1,3.2.3,59.98332487182604,
