run.thisRepN,run.thisTrialN,run.thisN,run.thisIndex,QA_block.thisRepN,QA_block.thisTrialN,QA_block.thisN,QA_block.thisIndex,QA_trial.thisRepN,QA_trial.thisTrialN,QA_trial.thisN,QA_trial.thisIndex,fade_in_text.text,fade_in_text.started,fade_in_text.stopped,RS_intro_title.started,RS_intro_title.stopped,RS_intro_text.text,RS_intro_text.started,RS_intro_text.stopped,RS_intro_audio.started,RS_intro_audio.stopped,RS_rec_text.text,RS_rec_text.started,RS_rec_text.stopped,Pause_cont.started,Pause_cont.stopped,QA_intro_title.started,QA_intro_title.stopped,QA_intro_text.text,QA_intro_text.started,QA_intro_text.stopped,QA_intro_audio.started,QA_intro_audio.stopped,QA_intro_cont.started,QA_intro_cont.stopped,QA_rec_text.text,QA_rec_text.started,QA_rec_text.stopped,QA_rec_beep_hint.started,QA_rec_beep_hint.stopped,QA_rec_question.sen_text,QA_rec_question.cen_text,QA_rec_question.started,QA_rec_question.stopped,QA_rec_beep_start.started,QA_rec_beep_start.stopped,QA_rec_beep_end.started,QA_rec_beep_end.stopped,QA_rec_break.started,QA_rec_break.stopped,filename,participant,session,First language,German level,Full_screen,Instruction,Intro,Artifact,Cali_pre,Fade_in_out,Artifact_within,Resting_State,QA,Pause,Cali_post,End,Breakpoint_Cali_pre_trial,Breakpoint_Run,Breakpoint_RS_block,Breakpoint_QA_block,Breakpoint_QA_trial,Breakpoint_Cali_post_trial,date,expName,psychopyVersion,frameRate,
0,0,0,0,0,0,0,0,0,0,0,0,Please remain seated until further instruction via the earphone.,53.14507222175598,None,262.58911204338074,None," - Task: Keep seated and relaxed with either      
             opening or closing eyes                  
 - Beep sound with decreasing pitch: Block finish 
",262.58911204338074,None,262.58886179924014,None,"Please keep relaxed and close your eyes.
",285.60743021965027,465.6164720058441,468.99992513656616,None,505.9692962169647,545.9873950481415," - Task: Listen to the question& Speak out answer 
 - Melodious beep sound: Trial start              
 - Silent sound (blank): censored word            
 - Beep sound with increasing pitch: Rec. start   
 - Beep sound with decreasing pitch: Rec. finish  
",505.9692962169647,545.9873950481415,505.9682457923889,None,545.3539230823517,None,Listen to the question and speak out your answer!,552.1543560028076,None,552.1376177310943,554.1378061771393,Ich bin von New York nach München geflogen.,geflogen,553.5377696037292,556.0379002094269,556.4545855998992,None,568.7388146400451,None,570.1390681266785,571.1389050483704,./data/Subject_08/Session_00/Exp_data/2020_Jul_24_1105/rec_QA_run_00_block_000_trial_000.wav,08,00,English,A2,True,False,True,False,False,True,True,True,True,True,True,True,No,No,No,No,No,No,2020_Jul_24_1105,nibs_stage_1,3.2.3,59.939436118538296,
0,0,0,0,0,0,0,0,1,0,1,0,,,,,,,,,,,,,,,,,,,,,,,,,Listen to the question and speak out your answer!,573.188835144043,None,573.1887623310089,575.1890981197357,"Bevor es Autos gab, sind die Leute mit der Eisenbahn gefahren.",gefahren,574.572501707077,None,578.8059535503387,None,589.7731585979461,None,591.1732711791992,592.1733591556549,./data/Subject_08/Session_00/Exp_data/2020_Jul_24_1105/rec_QA_run_00_block_000_trial_001.wav,08,00,English,A2,True,False,True,False,False,True,True,True,True,True,True,True,No,No,No,No,No,No,2020_Jul_24_1105,nibs_stage_1,3.2.3,59.939436118538296,
0,0,0,0,0,0,0,0,2,0,2,0,,,,,,,,,,,,,,,,,,,,,,,,,Listen to the question and speak out your answer!,594.2578032016754,None,594.2400433063507,596.240284204483,Taktlose Fragen machen mich wütend.,machen,595.6235046863555,None,598.5736856937408,599.5737190246582,610.8243697166442,None,612.2244231700897,613.2244691848755,./data/Subject_08/Session_00/Exp_data/2020_Jul_24_1105/rec_QA_run_00_block_000_trial_002.wav,08,00,English,A2,True,False,True,False,False,True,True,True,True,True,True,True,No,No,No,No,No,No,2020_Jul_24_1105,nibs_stage_1,3.2.3,59.939436118538296,
0,0,0,0,0,0,0,0,3,0,3,0,,,,,,,,,,,,,,,,,,,,,,,,,Listen to the question and speak out your answer!,615.3087902069092,None,615.2916664123535,617.2914860248566,Mein Freund schenkt mir eine Schachtel mit Schokolade.,schenkt,616.6748626708984,None,620.124809551239,None,631.8754075050354,None,633.2755010128021,634.2754700183868,./data/Subject_08/Session_00/Exp_data/2020_Jul_24_1105/rec_QA_run_00_block_000_trial_003.wav,08,00,English,A2,True,False,True,False,False,True,True,True,True,True,True,True,No,No,No,No,No,No,2020_Jul_24_1105,nibs_stage_1,3.2.3,59.939436118538296,
0,0,0,0,0,0,0,0,4,0,4,0,,,,,,,,,,,,,,,,,,,,,,,,,Listen to the question and speak out your answer!,636.3596091270447,None,636.342093372345,638.342442035675,Der Regenbogen besteht aus vielen Farben.,besteht,637.7256515502929,640.4092590808868,640.8258085727691,None,652.9265075206756,653.9265851974487,654.3267991542816,655.3269710540771,./data/Subject_08/Session_00/Exp_data/2020_Jul_24_1105/rec_QA_run_00_block_000_trial_004.wav,08,00,English,A2,True,False,True,False,False,True,True,True,True,True,True,True,No,No,No,No,No,No,2020_Jul_24_1105,nibs_stage_1,3.2.3,59.939436118538296,
0,0,0,0,0,0,0,0,5,0,5,0,,,,,,,,,,,,,,,,,,,,,,,,,Listen to the question and speak out your answer!,657.3941750526428,None,657.3932034015655,659.3935310840607,Der Läufer hat seine Konkurrenten mühelos geschlagen.,geschlagen,658.7767515659332,None,662.327039527893,663.327240228653,673.9777906417846,674.9776630401611,675.3776831626892,676.3777379989624,./data/Subject_08/Session_00/Exp_data/2020_Jul_24_1105/rec_QA_run_00_block_000_trial_005.wav,08,00,English,A2,True,False,True,False,False,True,True,True,True,True,True,True,No,No,No,No,No,No,2020_Jul_24_1105,nibs_stage_1,3.2.3,59.939436118538296,
0,0,0,0,0,0,0,0,6,0,6,0,,,,,,,,,,,,,,,,,,,,,,,,,Listen to the question and speak out your answer!,678.4446640014648,None,678.4275952816009,680.4280240535736,Der Ton macht die Musik.,macht,679.8112445354461,681.4279901981354,681.8446846485137,682.8447511196136,695.0120516300201,None,696.4123141765594,697.4120850563049,./data/Subject_08/Session_00/Exp_data/2020_Jul_24_1105/rec_QA_run_00_block_000_trial_006.wav,08,00,English,A2,True,False,True,False,False,True,True,True,True,True,True,True,No,No,No,No,No,No,2020_Jul_24_1105,nibs_stage_1,3.2.3,59.939436118538296,
0,0,0,0,0,0,0,0,7,0,7,0,,,,,,,,,,,,,,,,,,,,,,,,,Listen to the question and speak out your answer!,699.4787061214447,None,699.4787262916565,701.4788401126862,Sie beantwortete meine E-Mail schnell.,beantwortete,700.8620715618133,None,703.6791875839233,None,716.0465016841888,None,717.4465880393982,718.4465291500092,./data/Subject_08/Session_00/Exp_data/2020_Jul_24_1105/rec_QA_run_00_block_000_trial_007.wav,08,00,English,A2,True,False,True,False,False,True,True,True,True,True,True,True,No,No,No,No,No,No,2020_Jul_24_1105,nibs_stage_1,3.2.3,59.939436118538296,
0,0,0,0,0,0,0,0,8,0,8,0,,,,,,,,,,,,,,,,,,,,,,,,,Listen to the question and speak out your answer!,720.530198097229,None,720.513240480423,722.5135600566864,Du musst die Verantwortung für deine Taten übernehmen.,übernehmen,721.8967435836792,724.880291223526,725.2803256988525,726.2802641391754,737.0976055145263,None,738.4976541996002,739.4977052211761,./data/Subject_08/Session_00/Exp_data/2020_Jul_24_1105/rec_QA_run_00_block_000_trial_008.wav,08,00,English,A2,True,False,True,False,False,True,True,True,True,True,True,True,No,No,No,No,No,No,2020_Jul_24_1105,nibs_stage_1,3.2.3,59.939436118538296,
0,0,0,0,0,0,0,0,9,0,9,0,,,,,,,,,,,,,,,,,,,,,,,,,Listen to the question and speak out your answer!,741.5481700897217,None,741.5309243679046,743.5310611724854,Die äußeren Planeten bestehen aus Gas.,bestehen,742.9142547130584,745.647871017456,746.0645506858825,None,758.1155117034912,None,759.5154891014099,760.5157241821289,./data/Subject_08/Session_00/Exp_data/2020_Jul_24_1105/rec_QA_run_00_block_000_trial_009.wav,08,00,English,A2,True,False,True,False,False,True,True,True,True,True,True,True,No,No,No,No,No,No,2020_Jul_24_1105,nibs_stage_1,3.2.3,59.939436118538296,
0,0,0,0,0,0,0,0,10,0,10,0,,,,,,,,,,,,,,,,,,,,,,,,,Listen to the question and speak out your answer!,762.582640171051,None,762.56546792984,764.5653882026672,Nach dem großen Essen war mein Hunger gestillt.,gestillt,763.9654305458068,766.5655660629272,766.9824736595153,None,779.1663656711578,None,780.5665400028229,781.5664961338043,./data/Subject_08/Session_00/Exp_data/2020_Jul_24_1105/rec_QA_run_00_block_000_trial_010.wav,08,00,English,A2,True,False,True,False,False,True,True,True,True,True,True,True,No,No,No,No,No,No,2020_Jul_24_1105,nibs_stage_1,3.2.3,59.939436118538296,
0,0,0,0,0,0,0,0,11,0,11,0,,,,,,,,,,,,,,,,,,,,,,,,,Listen to the question and speak out your answer!,783.6338272094727,None,783.6163534164428,785.616702079773,"Ich musste meine Mitgliedschaft kündigen, weil sie zu teuer war.",kündigen,785.0000975608825,788.566742181778,788.9834976673126,None,800.200681734085,None,801.6007862091064,802.6008222103119,./data/Subject_08/Session_00/Exp_data/2020_Jul_24_1105/rec_QA_run_00_block_000_trial_011.wav,08,00,English,A2,True,False,True,False,False,True,True,True,True,True,True,True,No,No,No,No,No,No,2020_Jul_24_1105,nibs_stage_1,3.2.3,59.939436118538296,
0,0,0,0,0,0,0,0,12,0,12,0,,,,,,,,,,,,,,,,,,,,,,,,,Listen to the question and speak out your answer!,804.6842272281647,None,804.6673783302307,806.6846070289612,"Denk nicht so viel darüber nach, das wird nichts bringen.",bringen,806.0509987354278,809.1344940662384,809.5345795631408,None,821.2518077373504,None,822.6518862247467,823.6519300937653,./data/Subject_08/Session_00/Exp_data/2020_Jul_24_1105/rec_QA_run_00_block_000_trial_012.wav,08,00,English,A2,True,False,True,False,False,True,True,True,True,True,True,True,No,No,No,No,No,No,2020_Jul_24_1105,nibs_stage_1,3.2.3,59.939436118538296,
0,0,0,0,0,0,0,0,13,0,13,0,,,,,,,,,,,,,,,,,,,,,,,,,Listen to the question and speak out your answer!,825.7193350791931,None,825.701812839508,827.7022089958191,Ich möchte mir ein Buch aus der Bibliothek leihen.,leihen,827.1020546436309,None,830.3855627059936,831.3856871128082,842.3028417110443,None,843.7029662132263,844.7030901908875,./data/Subject_08/Session_00/Exp_data/2020_Jul_24_1105/rec_QA_run_00_block_000_trial_013.wav,08,00,English,A2,True,False,True,False,False,True,True,True,True,True,True,True,No,No,No,No,No,No,2020_Jul_24_1105,nibs_stage_1,3.2.3,59.939436118538296,
0,0,0,0,0,0,0,0,14,0,14,0,,,,,,,,,,,,,,,,,,,,,,,,,Listen to the question and speak out your answer!,846.7704000473022,None,846.736281967163,848.7365190982819,"In Neuseeland und Irland ist es so grün, weil es besonders oft regnet.",regnet,848.1364737033844,852.4700081348419,852.8701026916503,None,863.3374586582183,864.337797164917,864.7377481460571,865.7375741004944,./data/Subject_08/Session_00/Exp_data/2020_Jul_24_1105/rec_QA_run_00_block_000_trial_014.wav,08,00,English,A2,True,False,True,False,False,True,True,True,True,True,True,True,No,No,No,No,No,No,2020_Jul_24_1105,nibs_stage_1,3.2.3,59.939436118538296,
0,0,0,0,0,0,0,0,15,0,15,0,,,,,,,,,,,,,,,,,,,,,,,,,Listen to the question and speak out your answer!,867.7711801528931,None,867.7541003704071,869.754429101944,Morgen werden wir um sieben Uhr aufstehen.,aufstehen,869.1378055095672,None,872.1212096691131,873.1380372047424,884.3386486053466,885.338709115982,885.7387571334839,886.7386500835419,./data/Subject_08/Session_00/Exp_data/2020_Jul_24_1105/rec_QA_run_00_block_000_trial_015.wav,08,00,English,A2,True,False,True,False,False,True,True,True,True,True,True,True,No,No,No,No,No,No,2020_Jul_24_1105,nibs_stage_1,3.2.3,59.939436118538296,
0,0,0,0,0,0,0,0,16,0,16,0,,,,,,,,,,,,,,,,,,,,,,,,,Listen to the question and speak out your answer!,888.8054440021515,None,888.7885919570922,890.7889580726624,"Chris hat Zahnschmerzen, aber er fürchtet sich vor dem Zahnarzt.",fürchtet,890.1723216056823,894.2891371250153,894.7058175086975,None,905.3730736255645,None,906.7731640338898,907.7731580734253,./data/Subject_08/Session_00/Exp_data/2020_Jul_24_1105/rec_QA_run_00_block_000_trial_016.wav,08,00,English,A2,True,False,True,False,False,True,True,True,True,True,True,True,No,No,No,No,No,No,2020_Jul_24_1105,nibs_stage_1,3.2.3,59.939436118538296,
0,0,0,0,0,0,0,0,17,0,17,0,,,,,,,,,,,,,,,,,,,,,,,,,Listen to the question and speak out your answer!,909.8565700054169,None,909.823040819168,911.8233811855316,Die Katzen jagen Mäuse.,jagen,911.2398746490478,None,913.4068046092987,None,926.424237537384,None,927.8244111537933,928.8242650032043,./data/Subject_08/Session_00/Exp_data/2020_Jul_24_1105/rec_QA_run_00_block_000_trial_017.wav,08,00,English,A2,True,False,True,False,False,True,True,True,True,True,True,True,No,No,No,No,No,No,2020_Jul_24_1105,nibs_stage_1,3.2.3,59.939436118538296,
0,0,0,0,0,0,0,0,18,0,18,0,,,,,,,,,,,,,,,,,,,,,,,,,Listen to the question and speak out your answer!,930.8743641376495,None,930.8574567794799,932.8578011989594,"Ich bin der Überzeugung, dass er es rechtzeitig schaffen kann.",schaffen,932.2576826095581,935.8412940502167,936.2412577152252,None,947.4587386131286,948.4586310386658,948.8419530391693,949.8420231342316,./data/Subject_08/Session_00/Exp_data/2020_Jul_24_1105/rec_QA_run_00_block_000_trial_018.wav,08,00,English,A2,True,False,True,False,False,True,True,True,True,True,True,True,No,No,No,No,No,No,2020_Jul_24_1105,nibs_stage_1,3.2.3,59.939436118538296,
0,0,0,0,0,0,0,0,19,0,19,0,,,,,,,,,,,,,,,,,,,,,,,,,Listen to the question and speak out your answer!,951.9255480766296,None,951.9085654258728,953.9088501930237,Der ganze Kursus besichtigte die Ausstellung.,besichtigte,953.2922175407409,956.1256830692291,956.5257087230682,957.5256791114807,968.4930305957794,None,969.8933792114258,970.8930640220642,./data/Subject_08/Session_00/Exp_data/2020_Jul_24_1105/rec_QA_run_00_block_000_trial_019.wav,08,00,English,A2,True,False,True,False,False,True,True,True,True,True,True,True,No,No,No,No,No,No,2020_Jul_24_1105,nibs_stage_1,3.2.3,59.939436118538296,
0,0,0,0,0,0,0,0,20,0,20,0,,,,,,,,,,,,,,,,,,,,,,,,,Listen to the question and speak out your answer!,972.9778730869293,None,972.9596914291382,974.960018157959,Fabienne ist Ärztin und arbeitet im Krankenhaus.,arbeitet,974.3432226657867,None,978.0268235683441,None,989.5441096305847,990.5441701412201,990.9441862106323,991.9607741832733,./data/Subject_08/Session_00/Exp_data/2020_Jul_24_1105/rec_QA_run_00_block_000_trial_020.wav,08,00,English,A2,True,False,True,False,False,True,True,True,True,True,True,True,No,No,No,No,No,No,2020_Jul_24_1105,nibs_stage_1,3.2.3,59.939436118538296,
0,0,0,0,0,0,0,0,21,0,21,0,,,,,,,,,,,,,,,,,,,,,,,,,Listen to the question and speak out your answer!,994.0280890464783,None,994.0106314659118,996.011164188385,"Das Fenster ist offen, aber ich werde es schließen.",schließen,995.3943067073822,998.4112322330475,998.8111625194549,None,1010.595354604721,None,1011.9955050945282,1012.9952991008759,./data/Subject_08/Session_00/Exp_data/2020_Jul_24_1105/rec_QA_run_00_block_000_trial_021.wav,08,00,English,A2,True,False,True,False,False,True,True,True,True,True,True,True,No,No,No,No,No,No,2020_Jul_24_1105,nibs_stage_1,3.2.3,59.939436118538296,
0,0,0,0,0,0,0,0,22,0,22,0,,,,,,,,,,,,,,,,,,,,,,,,,Listen to the question and speak out your answer!,1015.0458571910858,None,1015.0284908771514,1017.0290610790253,Für dieses Produkt wird keine technische Unterstützung mehr angeboten.,angeboten,1016.4290075778961,1020.5624861717224,1020.9623966693878,None,1031.6296465873718,None,1033.0297210216522,1034.0296971797943,./data/Subject_08/Session_00/Exp_data/2020_Jul_24_1105/rec_QA_run_00_block_000_trial_022.wav,08,00,English,A2,True,False,True,False,False,True,True,True,True,True,True,True,No,No,No,No,No,No,2020_Jul_24_1105,nibs_stage_1,3.2.3,59.939436118538296,
0,0,0,0,0,0,0,0,23,0,23,0,,,,,,,,,,,,,,,,,,,,,,,,,Listen to the question and speak out your answer!,1036.080087184906,None,1036.0628889560699,1038.063311100006,Marco möchte den Brief zur Post bringen.,bringen,1037.4632466316223,None,1040.313298511505,1041.3134651184082,1052.6472917079925,None,1054.0474572181702,1055.0475540161133,./data/Subject_08/Session_00/Exp_data/2020_Jul_24_1105/rec_QA_run_00_block_000_trial_023.wav,08,00,English,A2,True,False,True,False,False,True,True,True,True,True,True,True,No,No,No,No,No,No,2020_Jul_24_1105,nibs_stage_1,3.2.3,59.939436118538296,
0,0,0,0,0,0,0,0,24,0,24,0,,,,,,,,,,,,,,,,,,,,,,,,,Listen to the question and speak out your answer!,1057.1312170028687,None,1057.1141025066374,1059.1144201755524,Er hat seine Katze oft mit Fisch gefüttert.,gefüttert,1058.4975746154785,1060.9644901752472,1061.3812516212463,None,1073.6982377052307,1074.7148911952972,1075.1150259971619,None,./data/Subject_08/Session_00/Exp_data/2020_Jul_24_1105/rec_QA_run_00_block_000_trial_024.wav,08,00,English,A2,True,False,True,False,False,True,True,True,True,True,True,True,No,No,No,No,No,No,2020_Jul_24_1105,nibs_stage_1,3.2.3,59.939436118538296,
0,0,0,0,0,0,0,0,,,,,,,,,,,,,,,,,,1079.1657891273499,None,,,,,,,,,,,,,,,,,,,,,,,,,,08,00,English,A2,True,False,True,False,False,True,True,True,True,True,True,True,No,No,No,No,No,No,2020_Jul_24_1105,nibs_stage_1,3.2.3,59.939436118538296,
0,0,0,0,1,0,1,0,0,0,0,0,,,,,,,,,,,,,,,,,,,,,,,,,Listen to the question and speak out your answer!,1114.9171750545502,None,1114.8833802700042,1116.9171872138977,Ich würde sofort meinen Job kündigen und nie mehr arbeiten.,kündigen,1116.3005795955658,None,1120.2340937137603,None,1131.5013306617736,None,1132.9181280136108,None,./data/Subject_08/Session_00/Exp_data/2020_Jul_24_1105/rec_QA_run_00_block_001_trial_000.wav,08,00,English,A2,True,False,True,False,False,True,True,True,True,True,True,True,No,No,No,No,No,No,2020_Jul_24_1105,nibs_stage_1,3.2.3,59.939436118538296,
0,0,0,0,1,0,1,0,1,0,1,0,,,,,,,,,,,,,,,,,,,,,,,,,Listen to the question and speak out your answer!,1135.9521751403809,None,1135.9180179595946,1137.9517090320587,"Da ich gestern Abend übergewichtig war, werde ich morgen eine neue Diät beginnen.",beginnen,1137.3349106788635,1142.0852630138397,1142.4351685523986,None,1152.5357757091522,1153.5524291992188,1153.9524340629578,None,./data/Subject_08/Session_00/Exp_data/2020_Jul_24_1105/rec_QA_run_00_block_001_trial_001.wav,08,00,English,A2,True,False,True,False,False,True,True,True,True,True,True,True,No,No,No,No,No,No,2020_Jul_24_1105,nibs_stage_1,3.2.3,59.939436118538296,
0,0,0,0,1,0,1,0,2,0,2,0,,,,,,,,,,,,,,,,,,,,,,,,,Listen to the question and speak out your answer!,1156.985923051834,None,1156.9690762996672,1158.9860320091248,In Österreich gibt es eine richtige Kaffeehauskultur.,gibt,1158.3693485736846,None,1162.0361755371093,None,1173.5701275348663,None,1174.986822128296,None,./data/Subject_08/Session_00/Exp_data/2020_Jul_24_1105/rec_QA_run_00_block_001_trial_002.wav,08,00,English,A2,True,False,True,False,False,True,True,True,True,True,True,True,No,No,No,No,No,No,2020_Jul_24_1105,nibs_stage_1,3.2.3,59.939436118538296,
0,0,0,0,1,0,1,0,3,0,3,0,,,,,,,,,,,,,,,,,,,,,,,,,Listen to the question and speak out your answer!,1178.055388212204,None,1178.036848449707,1180.0538082122803,Früher haben in Europa und Asien Neandertaler gelebt.,gelebt,1179.4370947360992,1183.1540200710297,1183.5373056411743,None,1194.6378975391387,None,1196.054633140564,None,./data/Subject_08/Session_00/Exp_data/2020_Jul_24_1105/rec_QA_run_00_block_001_trial_003.wav,08,00,English,A2,True,False,True,False,False,True,True,True,True,True,True,True,No,No,No,No,No,No,2020_Jul_24_1105,nibs_stage_1,3.2.3,59.939436118538296,
0,0,0,0,1,0,1,0,4,0,4,0,,,,,,,,,,,,,,,,,,,,,,,,,Listen to the question and speak out your answer!,1199.088299036026,None,1199.071206474304,1201.0882260799408,Wir sollen großen Wert auf die Sparsamkeit beim Wasser legen.,legen,1200.4714515686035,None,1204.5383975982666,None,1215.688997554779,1216.7057092189789,1217.105723142624,None,./data/Subject_08/Session_00/Exp_data/2020_Jul_24_1105/rec_QA_run_00_block_001_trial_004.wav,08,00,English,A2,True,False,True,False,False,True,True,True,True,True,True,True,No,No,No,No,No,No,2020_Jul_24_1105,nibs_stage_1,3.2.3,59.939436118538296,
0,0,0,0,1,0,1,0,5,0,5,0,,,,,,,,,,,,,,,,,,,,,,,,,Listen to the question and speak out your answer!,1220.139859199524,None,1220.1056388378142,1222.139318227768,"Die Suppe wird nicht so heiß gegessen, wie sie gekocht wird.",gegessen,1221.5226195335388,None,1225.2227285385131,1226.2395350933075,1236.723410654068,None,1238.1402020454407,None,./data/Subject_08/Session_00/Exp_data/2020_Jul_24_1105/rec_QA_run_00_block_001_trial_005.wav,08,00,English,A2,True,False,True,False,False,True,True,True,True,True,True,True,No,No,No,No,No,No,2020_Jul_24_1105,nibs_stage_1,3.2.3,59.939436118538296,
0,0,0,0,1,0,1,0,6,0,6,0,,,,,,,,,,,,,,,,,,,,,,,,,Listen to the question and speak out your answer!,1241.1750490665436,None,1241.1567043304442,1243.1737461090088,Die Universität hat meinen Studentenausweis ausgestellt.,ausgestellt,1242.5570385932922,1246.1741971969604,1246.5572436332702,1247.5738971233368,1257.7578356742858,None,1259.1745791435242,None,./data/Subject_08/Session_00/Exp_data/2020_Jul_24_1105/rec_QA_run_00_block_001_trial_006.wav,08,00,English,A2,True,False,True,False,False,True,True,True,True,True,True,True,No,No,No,No,No,No,2020_Jul_24_1105,nibs_stage_1,3.2.3,59.939436118538296,
0,0,0,0,1,0,1,0,7,0,7,0,,,,,,,,,,,,,,,,,,,,,,,,,Listen to the question and speak out your answer!,1262.2587361335754,None,1262.2244915008544,1264.2581841945648,Der Detektiv ist ihm bis zu seinem Haus gefolgt.,gefolgt,1263.6414785861969,None,1267.0416546344757,None,1278.8088686943054,1279.8256931304932,1280.2256631851196,None,./data/Subject_08/Session_00/Exp_data/2020_Jul_24_1105/rec_QA_run_00_block_001_trial_007.wav,08,00,English,A2,True,False,True,False,False,True,True,True,True,True,True,True,No,No,No,No,No,No,2020_Jul_24_1105,nibs_stage_1,3.2.3,59.939436118538296,
0,0,0,0,1,0,1,0,8,0,8,0,,,,,,,,,,,,,,,,,,,,,,,,,Listen to the question and speak out your answer!,1283.2940080165863,None,1283.275579357147,1285.292610168457,"Ich habe mich bei einem Kurs angemeldet, um Deutsch zu lernen.",angemeldet,1284.6759055137634,1288.19287109375,1288.5761056423187,None,1299.8767495632171,1300.8934190273285,1301.2935421466827,None,./data/Subject_08/Session_00/Exp_data/2020_Jul_24_1105/rec_QA_run_00_block_001_trial_008.wav,08,00,English,A2,True,False,True,False,False,True,True,True,True,True,True,True,No,No,No,No,No,No,2020_Jul_24_1105,nibs_stage_1,3.2.3,59.939436118538296,
0,0,0,0,1,0,1,0,9,0,9,0,,,,,,,,,,,,,,,,,,,,,,,,,Listen to the question and speak out your answer!,1304.3608930110931,None,1304.3433493614195,1306.3603842258453,Ich denke immer an meine Kindheit zurück.,denke,1305.743681716919,None,1308.443886566162,None,1320.944504547119,1321.9611661434174,1322.3611891269684,None,./data/Subject_08/Session_00/Exp_data/2020_Jul_24_1105/rec_QA_run_00_block_001_trial_009.wav,08,00,English,A2,True,False,True,False,False,True,True,True,True,True,True,True,No,No,No,No,No,No,2020_Jul_24_1105,nibs_stage_1,3.2.3,59.939436118538296,
0,0,0,0,1,0,1,0,10,0,10,0,,,,,,,,,,,,,,,,,,,,,,,,,Listen to the question and speak out your answer!,1325.4286160469055,None,1325.3944209575652,1327.4281141757965,"Thomas hat schon so kurze Haare, er muss sich nicht kämmen.",kämmen,1326.7780867099762,None,1330.5782635688781,None,1341.9788625717163,None,1343.395621061325,None,./data/Subject_08/Session_00/Exp_data/2020_Jul_24_1105/rec_QA_run_00_block_001_trial_010.wav,08,00,English,A2,True,False,True,False,False,True,True,True,True,True,True,True,No,No,No,No,No,No,2020_Jul_24_1105,nibs_stage_1,3.2.3,59.939436118538296,
0,0,0,0,1,0,1,0,11,0,11,0,,,,,,,,,,,,,,,,,,,,,,,,,Listen to the question and speak out your answer!,1346.4629061222076,None,1346.4456314086913,1348.4625570774078,"Es dauerte lange, alle nötigen Informationen zu sammeln.",sammeln,1347.8459575653076,1351.4629640579224,1351.8460605621337,None,1363.0466676235199,None,1364.4634521007538,None,./data/Subject_08/Session_00/Exp_data/2020_Jul_24_1105/rec_QA_run_00_block_001_trial_011.wav,08,00,English,A2,True,False,True,False,False,True,True,True,True,True,True,True,No,No,No,No,No,No,2020_Jul_24_1105,nibs_stage_1,3.2.3,59.939436118538296,
0,0,0,0,1,0,1,0,12,0,12,0,,,,,,,,,,,,,,,,,,,,,,,,,Listen to the question and speak out your answer!,1367.530308008194,None,1367.4966360092162,1369.5304481983185,Ich habe seine Telefonnummer auf einem Zettel notiert.,notiert,1368.91359667778,1372.1307051181793,1372.5137966156005,None,1384.114415693283,None,1385.5312571525574,None,./data/Subject_08/Session_00/Exp_data/2020_Jul_24_1105/rec_QA_run_00_block_001_trial_012.wav,08,00,English,A2,True,False,True,False,False,True,True,True,True,True,True,True,No,No,No,No,No,No,2020_Jul_24_1105,nibs_stage_1,3.2.3,59.939436118538296,
0,0,0,0,1,0,1,0,13,0,13,0,,,,,,,,,,,,,,,,,,,,,,,,,Listen to the question and speak out your answer!,1388.5652830600739,None,1388.547720336914,1390.5646522045135,"Ja, das Wasser aus der Leitung kann man trinken.",trinken,1389.9480467319488,None,1393.2482116699218,None,1405.148831653595,None,1406.5656712055206,None,./data/Subject_08/Session_00/Exp_data/2020_Jul_24_1105/rec_QA_run_00_block_001_trial_013.wav,08,00,English,A2,True,False,True,False,False,True,True,True,True,True,True,True,No,No,No,No,No,No,2020_Jul_24_1105,nibs_stage_1,3.2.3,59.939436118538296,
0,0,0,0,1,0,1,0,14,0,14,0,,,,,,,,,,,,,,,,,,,,,,,,,Listen to the question and speak out your answer!,1409.633637189865,None,1409.6154114246367,1411.6324951648712,"Ich komme, soweit es meine Zeit erlaubt.",erlaubt,1411.0158386707305,1413.5992732048035,1413.982624578476,None,1426.2166135787963,None,1427.6333601474762,None,./data/Subject_08/Session_00/Exp_data/2020_Jul_24_1105/rec_QA_run_00_block_001_trial_014.wav,08,00,English,A2,True,False,True,False,False,True,True,True,True,True,True,True,No,No,No,No,No,No,2020_Jul_24_1105,nibs_stage_1,3.2.3,59.939436118538296,
0,0,0,0,1,0,1,0,15,0,15,0,,,,,,,,,,,,,,,,,,,,,,,,,Listen to the question and speak out your answer!,1430.7018830776215,None,1430.6832493782042,1432.7002820968628,Felix muss schon um sechs Uhr früh aufstehen.,aufstehen,1432.083548593521,1434.9671301841736,1435.3503966808319,None,1447.2509365558624,1448.2677600383759,1448.6677460670471,None,./data/Subject_08/Session_00/Exp_data/2020_Jul_24_1105/rec_QA_run_00_block_001_trial_015.wav,08,00,English,A2,True,False,True,False,False,True,True,True,True,True,True,True,No,No,No,No,No,No,2020_Jul_24_1105,nibs_stage_1,3.2.3,59.939436118538296,
0,0,0,0,1,0,1,0,16,0,16,0,,,,,,,,,,,,,,,,,,,,,,,,,Listen to the question and speak out your answer!,1451.7351970672607,None,1451.7010208129882,1453.734717130661,Im Mittelalter öffnete das erste Kaufhaus in Europa.,öffnete,1453.1180005550384,1456.7350389957428,1457.1181915283203,None,1468.318806695938,1469.3355331420898,1469.7356262207031,None,./data/Subject_08/Session_00/Exp_data/2020_Jul_24_1105/rec_QA_run_00_block_001_trial_016.wav,08,00,English,A2,True,False,True,False,False,True,True,True,True,True,True,True,No,No,No,No,No,No,2020_Jul_24_1105,nibs_stage_1,3.2.3,59.939436118538296,
0,0,0,0,1,0,1,0,17,0,17,0,,,,,,,,,,,,,,,,,,,,,,,,,Listen to the question and speak out your answer!,1472.7858510017395,None,1472.7520734310149,1474.7857830524445,Der Spender möchte anonym bleiben.,bleiben,1474.1357436656951,1476.25252699852,1476.635892677307,None,1489.336565542221,1490.353261232376,1490.753298997879,None,./data/Subject_08/Session_00/Exp_data/2020_Jul_24_1105/rec_QA_run_00_block_001_trial_017.wav,08,00,English,A2,True,False,True,False,False,True,True,True,True,True,True,True,No,No,No,No,No,No,2020_Jul_24_1105,nibs_stage_1,3.2.3,59.939436118538296,
0,0,0,0,1,0,1,0,18,0,18,0,,,,,,,,,,,,,,,,,,,,,,,,,Listen to the question and speak out your answer!,1493.8209280967712,None,1493.803177499771,1495.820228099823,Die Mutter rührt in ihren Töpfen und Pfannen.,rührt,1495.203514623642,1497.8870232105255,1498.237040567398,None,1510.4042885780334,None,1511.8210380077362,None,./data/Subject_08/Session_00/Exp_data/2020_Jul_24_1105/rec_QA_run_00_block_001_trial_018.wav,08,00,English,A2,True,False,True,False,False,True,True,True,True,True,True,True,No,No,No,No,No,No,2020_Jul_24_1105,nibs_stage_1,3.2.3,59.939436118538296,
0,0,0,0,1,0,1,0,19,0,19,0,,,,,,,,,,,,,,,,,,,,,,,,,Listen to the question and speak out your answer!,1514.8897061347961,None,1514.8709434509276,1516.8879752159119,An seinem Mantel fehlt ein Knopf.,fehlt,1516.271262693405,1518.3880610466003,1518.7713835716247,None,1531.4720526218414,1532.488792181015,1532.8888130187988,None,./data/Subject_08/Session_00/Exp_data/2020_Jul_24_1105/rec_QA_run_00_block_001_trial_019.wav,08,00,English,A2,True,False,True,False,False,True,True,True,True,True,True,True,No,No,No,No,No,No,2020_Jul_24_1105,nibs_stage_1,3.2.3,59.939436118538296,
0,0,0,0,1,0,1,0,20,0,20,0,,,,,,,,,,,,,,,,,,,,,,,,,Listen to the question and speak out your answer!,1535.9224162101746,None,1535.8887198925017,1537.922401189804,Der Vogel flog zurück zu seinem Nest.,flog,1537.272339630127,None,1540.1391666412353,None,1552.4734495162963,None,1553.8899002075195,None,./data/Subject_08/Session_00/Exp_data/2020_Jul_24_1105/rec_QA_run_00_block_001_trial_020.wav,08,00,English,A2,True,False,True,False,False,True,True,True,True,True,True,True,No,No,No,No,No,No,2020_Jul_24_1105,nibs_stage_1,3.2.3,59.939436118538296,
0,0,0,0,1,0,1,0,21,0,21,0,,,,,,,,,,,,,,,,,,,,,,,,,Listen to the question and speak out your answer!,1556.9572892189026,None,1556.923136806488,1558.9568362236023,Wir freuen uns sehr über Ihren Besuch.,freuen,1558.3401055812835,1560.75692820549,1561.1069186210632,None,1573.5409036159515,1574.5576322078705,1574.9576830863953,None,./data/Subject_08/Session_00/Exp_data/2020_Jul_24_1105/rec_QA_run_00_block_001_trial_021.wav,08,00,English,A2,True,False,True,False,False,True,True,True,True,True,True,True,No,No,No,No,No,No,2020_Jul_24_1105,nibs_stage_1,3.2.3,59.939436118538296,
0,0,0,0,1,0,1,0,22,0,22,0,,,,,,,,,,,,,,,,,,,,,,,,,Listen to the question and speak out your answer!,1577.9914960861206,None,1577.9742313861846,1579.991247177124,"Meine Mutter kocht heute Mittag nicht, wir gehen aus zum Essen.",kocht,1579.341202545166,1583.091423034668,1583.4747806072235,None,1594.542068529129,1595.5587520599365,1595.9587700366974,None,./data/Subject_08/Session_00/Exp_data/2020_Jul_24_1105/rec_QA_run_00_block_001_trial_022.wav,08,00,English,A2,True,False,True,False,False,True,True,True,True,True,True,True,No,No,No,No,No,No,2020_Jul_24_1105,nibs_stage_1,3.2.3,59.939436118538296,
0,0,0,0,1,0,1,0,23,0,23,0,,,,,,,,,,,,,,,,,,,,,,,,,Listen to the question and speak out your answer!,1599.0257630348206,None,1599.008751296997,1601.025672197342,Die Band beendete das Konzert unter großem Beifall.,beendete,1600.408983516693,None,1604.109151649475,None,1615.6099637031555,1616.6265151500702,1617.0266370773315,None,./data/Subject_08/Session_00/Exp_data/2020_Jul_24_1105/rec_QA_run_00_block_001_trial_023.wav,08,00,English,A2,True,False,True,False,False,True,True,True,True,True,True,True,No,No,No,No,No,No,2020_Jul_24_1105,nibs_stage_1,3.2.3,59.939436118538296,
0,0,0,0,1,0,1,0,24,0,24,0,,,,,,,,,,,,,,,,,,,,,,,,,Listen to the question and speak out your answer!,1620.0933542251587,None,1620.0764063835143,1622.093402147293,Linda trinkt lieber eine heiße Schokolade.,trinkt,1621.4434106826782,None,1624.6435595035553,None,1636.644182729721,None,1638.0609290599823,None,./data/Subject_08/Session_00/Exp_data/2020_Jul_24_1105/rec_QA_run_00_block_001_trial_024.wav,08,00,English,A2,True,False,True,False,False,True,True,True,True,True,True,True,No,No,No,No,No,No,2020_Jul_24_1105,nibs_stage_1,3.2.3,59.939436118538296,
