run.thisRepN,run.thisTrialN,run.thisN,run.thisIndex,artifact_trial.thisRepN,artifact_trial.thisTrialN,artifact_trial.thisN,artifact_trial.thisIndex,QA_block.thisRepN,QA_block.thisTrialN,QA_block.thisN,QA_block.thisIndex,QA_trial.thisRepN,QA_trial.thisTrialN,QA_trial.thisN,QA_trial.thisIndex,fade_in_text.text,fade_in_text.started,fade_in_text.stopped,Artifact_intro_title.started,Artifact_intro_title.stopped,Artifact_intro_text.text,Artifact_intro_text.started,Artifact_intro_text.stopped,Artifact_intro_audio.started,Artifact_intro_audio.stopped,Artifact_intro_cont.started,Artifact_intro_cont.stopped,Artifact_rec_text.text,Artifact_rec_text.started,Artifact_rec_text.stopped,Artifact_rec_beep_hint.started,Artifact_rec_beep_hint.stopped,Artifact_rec_action.started,Artifact_rec_action.stopped,Artifact_rec_beep_start.started,Artifact_rec_beep_start.stopped,Artifact_rec_recording.started,Artifact_rec_recording.stopped,Artifact_rec_beep_end.started,Artifact_rec_beep_end.stopped,Artifact_rec_break.started,Artifact_rec_break.stopped,RS_intro_title.started,RS_intro_title.stopped,RS_intro_text.text,RS_intro_text.started,RS_intro_text.stopped,RS_intro_audio.started,RS_intro_audio.stopped,RS_rec_text.text,RS_rec_text.started,RS_rec_text.stopped,Pause_cont.started,Pause_cont.stopped,QA_intro_title.started,QA_intro_title.stopped,QA_intro_text.text,QA_intro_text.started,QA_intro_text.stopped,QA_intro_audio.started,QA_intro_audio.stopped,QA_intro_cont.started,QA_intro_cont.stopped,QA_rec_text.text,QA_rec_text.started,QA_rec_text.stopped,QA_rec_beep_hint.started,QA_rec_beep_hint.stopped,QA_rec_question.sen_text,QA_rec_question.cen_text,QA_rec_question.started,QA_rec_question.stopped,QA_rec_beep_start.started,QA_rec_beep_start.stopped,QA_rec_beep_end.started,QA_rec_beep_end.stopped,QA_rec_break.started,QA_rec_break.stopped,filename,participant,session,First language,German level,Full_screen,Instruction,Intro,Artifact,Cali_pre,Fade_in_out,Artifact_within,Resting_State,QA,Pause,Cali_post,End,Breakpoint_Cali_pre_trial,Breakpoint_Run,Breakpoint_RS_block,Breakpoint_QA_block,Breakpoint_QA_trial,Breakpoint_Cali_post_trial,date,expName,psychopyVersion,frameRate,
2,0,2,0,0,0,0,0,,,,,,,,,Please remain seated until further instruction via the earphone.,54.08988308906555,None,56.12326502799988,83.12483596801758,"  - Task: Artifacts collection   
  - Please follow audio instruction              
",56.12326502799988,83.12483596801758,56.10664880275726,None,82.49131894111633,None,,85.60840201377869,None,85.59133470058441,87.59170413017273,86.97496449947357,None,90.37518155574799,None,91.77529752254486,101.77579402923584,102.17581760883331,None,103.5758421421051,104.57595205307007,,,,,,,,,,,,,,,,,,,,,,,,,,,,,,,,,,,,,,08,00,English,A2,True,False,True,False,False,True,True,True,True,True,True,True,No,2,No,No,No,No,2020_Jul_24_1223,nibs_stage_1,3.2.3,60.02366999391793,
2,0,2,0,1,0,1,0,,,,,,,,,,,,,,,,,,,,,,107.62598514556885,None,107.60942280292511,109.60955214500427,108.99296247959137,None,112.39296853542328,None,113.79298150539398,123.79353904724121,124.19358551502228,None,125.59381794929504,126.59370994567871,,,,,,,,,,,,,,,,,,,,,,,,,,,,,,,,,,,,,,08,00,English,A2,True,False,True,False,False,True,True,True,True,True,True,True,No,2,No,No,No,No,2020_Jul_24_1223,nibs_stage_1,3.2.3,60.02366999391793,
2,0,2,0,2,0,2,0,,,,,,,,,,,,,,,,,,,,,,129.6439070701599,None,129.6271857023239,131.6272931098938,131.01063859462738,None,134.41080462932587,None,135.81088149547577,145.81136393547058,146.21141064167023,None,147.61157202720642,148.61155200004578,,,,,,,,,,,,,,,,,,,,,,,,,,,,,,,,,,,,,,08,00,English,A2,True,False,True,False,False,True,True,True,True,True,True,True,No,2,No,No,No,No,2020_Jul_24_1223,nibs_stage_1,3.2.3,60.02366999391793,
2,0,2,0,3,0,3,0,,,,,,,,,,,,,,,,,,,,,,151.66169595718384,None,151.645214676857,153.64511799812317,153.02845346927643,None,156.42863643169403,None,157.82870256900787,167.82925701141357,168.22923958301544,None,169.62939596176147,170.62932300567627,,,,,,,,,,,,,,,,,,,,,,,,,,,,,,,,,,,,,,08,00,English,A2,True,False,True,False,False,True,True,True,True,True,True,True,No,2,No,No,No,No,2020_Jul_24_1223,nibs_stage_1,3.2.3,60.02366999391793,
2,0,2,0,4,0,4,0,,,,,,,,,,,,,,,,,,,,,,173.679358959198,None,173.66285169124603,175.6627321243286,175.0461424589157,None,178.44621551036835,None,179.84622657299042,189.84672594070435,190.24685561656952,191.24687814712524,191.64712595939636,192.64706707000732,,,,,,,,,,,,,,,,,,,,,,,,,,,,,,,,,,,,,,08,00,English,A2,True,False,True,False,False,True,True,True,True,True,True,True,No,2,No,No,No,No,2020_Jul_24_1223,nibs_stage_1,3.2.3,60.02366999391793,
2,0,2,0,5,0,5,0,,,,,,,,,,,,,,,,,,,,,,195.69733595848083,None,195.6804348230362,197.68050003051758,197.0638815164566,None,200.46403658390045,None,201.8641015291214,211.86465001106262,212.26467263698578,None,213.66475009918213,214.66534996032715,,,,,,,,,,,,,,,,,,,,,,,,,,,,,,,,,,,,,,08,00,English,A2,True,False,True,False,False,True,True,True,True,True,True,True,No,2,No,No,No,No,2020_Jul_24_1223,nibs_stage_1,3.2.3,60.02366999391793,
2,0,2,0,6,0,6,0,,,,,,,,,,,,,,,,,,,,,,217.71510314941406,None,217.69825565814972,219.69831705093384,219.08170545101166,None,222.48187458515167,None,223.8819636106491,233.88245511054993,234.28247463703156,None,235.68255305290222,236.6825671195984,,,,,,,,,,,,,,,,,,,,,,,,,,,,,,,,,,,,,,08,00,English,A2,True,False,True,False,False,True,True,True,True,True,True,True,No,2,No,No,No,No,2020_Jul_24_1223,nibs_stage_1,3.2.3,60.02366999391793,
2,0,2,0,7,0,7,0,,,,,,,,,,,,,,,,,,,,,,239.73303699493408,None,239.7160986661911,241.71622514724731,241.09951961040497,244.0996789932251,244.49971544742584,None,245.8998554944992,255.9003119468689,256.3002566099167,257.3003809452057,257.70038294792175,258.7004380226135,,,,,,,,,,,,,,,,,,,,,,,,,,,,,,,,,,,,,,08,00,English,A2,True,False,True,False,False,True,True,True,True,True,True,True,No,2,No,No,No,No,2020_Jul_24_1223,nibs_stage_1,3.2.3,60.02366999391793,
2,0,2,0,8,0,8,0,,,,,,,,,,,,,,,,,,,,,,261.75066804885864,None,261.73393976688385,263.73404812812805,263.11792147159576,266.1174931526184,266.5186675786972,None,267.91765344142914,277.9180591106415,278.3180614709854,279.33504915237427,279.7182159423828,280.7182469367981,,,,,,,,,,,,,,,,,,,,,,,,,,,,,,,,,,,,,,08,00,English,A2,True,False,True,False,False,True,True,True,True,True,True,True,No,2,No,No,No,No,2020_Jul_24_1223,nibs_stage_1,3.2.3,60.02366999391793,
2,0,2,0,9,0,9,0,,,,,,,,,,,,,,,,,,,,,,283.7685260772705,None,283.75196182727814,285.75178599357605,285.13516557216644,288.1356520652771,288.53563845157623,None,289.935639500618,299.9361741542816,300.3361495733261,301.33635115623474,301.7364411354065,302.7365119457245,,,,,,,,,,,,,,,,,,,,,,,,,,,,,,,,,,,,,,08,00,English,A2,True,False,True,False,False,True,True,True,True,True,True,True,No,2,No,No,No,No,2020_Jul_24_1223,nibs_stage_1,3.2.3,60.02366999391793,
2,0,2,0,10,0,10,0,,,,,,,,,,,,,,,,,,,,,,305.78664898872375,None,305.76991379261017,307.7699029445648,307.153191447258,None,310.5535465478897,None,311.9536644220352,321.9539999961853,322.3541775941849,323.35406613349915,323.7540979385376,324.7541480064392,,,,,,,,,,,,,,,,,,,,,,,,,,,,,,,,,,,,,,08,00,English,A2,True,False,True,False,False,True,True,True,True,True,True,True,No,2,No,No,No,No,2020_Jul_24_1223,nibs_stage_1,3.2.3,60.02366999391793,
2,0,2,0,11,0,11,0,,,,,,,,,,,,,,,,,,,,,,327.8043670654297,None,327.7876318693161,329.78791904449463,329.17102563381195,None,332.5712584257126,None,333.97126853466034,343.9717471599579,344.37201964855194,345.37190198898315,345.7721281051636,346.77195405960083,,,,,,,,,,,,,,,,,,,,,,,,,,,,,,,,,,,,,,08,00,English,A2,True,False,True,False,False,True,True,True,True,True,True,True,No,2,No,No,No,No,2020_Jul_24_1223,nibs_stage_1,3.2.3,60.02366999391793,
2,0,2,0,12,0,12,0,,,,,,,,,,,,,,,,,,,,,,349.8221731185913,None,349.8053387403488,351.8222930431366,351.18885362148285,354.18902611732483,354.5890556573868,None,356.0055536031723,366.02274799346924,366.406009554863,None,367.8229031562805,368.8562271595001,,,,,,,,,,,,,,,,,,,,,,,,,,,,,,,,,,,,,,08,00,English,A2,True,False,True,False,False,True,True,True,True,True,True,True,No,2,No,No,No,No,2020_Jul_24_1223,nibs_stage_1,3.2.3,60.02366999391793,
2,0,2,0,13,0,13,0,,,,,,,,,,,,,,,,,,,,,,371.8570420742035,None,371.83969366550446,373.8565180301666,373.23978865146637,None,376.63998544216156,377.6567759513855,378.0400425195694,388.05723309516907,388.4405835866928,None,389.85731196403503,390.8907051086426,,,,,,,,,,,,,,,,,,,,,,,,,,,,,,,,,,,,,,08,00,English,A2,True,False,True,False,False,True,True,True,True,True,True,True,No,2,No,No,No,No,2020_Jul_24_1223,nibs_stage_1,3.2.3,60.02366999391793,
2,0,2,0,14,0,14,0,,,,,,,,,,,,,,,,,,,,,,393.8917591571808,None,393.8741878271103,395.89099311828613,395.27427065372467,None,398.67446744441986,None,400.07453858852386,410.09171509742737,410.47505843639374,None,411.89180302619934,412.9251890182495,,,,,,,,,,,,,,,,,,,,,,,,,,,,,,,,,,,,,,08,00,English,A2,True,False,True,False,False,True,True,True,True,True,True,True,No,2,No,No,No,No,2020_Jul_24_1223,nibs_stage_1,3.2.3,60.02366999391793,
2,0,2,0,,,,,0,0,0,0,0,0,0,0,,,,,,,,,,,,,,,,,,,,,,,,,,,,623.3703560829163,None," - Task: Keep seated and relaxed with either      
             opening or closing eyes                  
 - Beep sound with decreasing pitch: Block finish 
",623.3703560829163,None,623.3529243469238,None,"Please keep relaxed and close your eyes.
",646.4210810661316,826.46360206604,829.8304631710052,None,851.3648550510406,891.4002649784088," - Task: Listen to the question& Speak out answer 
 - Melodious beep sound: Trial start              
 - Silent sound (blank): censored word            
 - Beep sound with increasing pitch: Rec. start   
 - Beep sound with decreasing pitch: Rec. finish  
",851.3648550510406,891.4002649784088,851.3481558561325,None,890.78364610672,None,Listen to the question and speak out your answer!,896.6175351142883,None,896.6005209684372,898.6173729896545,Das Kind kann die Tischkante noch nicht erreichen.,erreichen,898.000591635704,900.6509909629822,901.0340956449509,None,913.2014454603195,None,914.618026971817,None,./data/Subject_08/Session_00/Exp_data/2020_Jul_24_1223/rec_QA_run_02_block_000_trial_000.wav,08,00,English,A2,True,False,True,False,False,True,True,True,True,True,True,True,No,2,No,No,No,No,2020_Jul_24_1223,nibs_stage_1,3.2.3,60.02366999391793,
2,0,2,0,,,,,0,0,0,0,1,0,1,0,,,,,,,,,,,,,,,,,,,,,,,,,,,,,,,,,,,,,,,,,,,,,,,,,Listen to the question and speak out your answer!,917.6853649616241,None,917.6682566404343,919.6850571632385,Wir sollen unsere Hände täglich aus Hygiene waschen.,waschen,919.0683645009995,922.3852210044861,922.7685536146164,None,934.2692235708237,935.285884141922,935.6859140396118,None,./data/Subject_08/Session_00/Exp_data/2020_Jul_24_1223/rec_QA_run_02_block_000_trial_001.wav,08,00,English,A2,True,False,True,False,False,True,True,True,True,True,True,True,No,2,No,No,No,No,2020_Jul_24_1223,nibs_stage_1,3.2.3,60.02366999391793,
2,0,2,0,,,,,0,0,0,0,2,0,2,0,,,,,,,,,,,,,,,,,,,,,,,,,,,,,,,,,,,,,,,,,,,,,,,,,Listen to the question and speak out your answer!,938.7529950141907,None,938.736045718193,940.7527589797974,Ich habe gestern Abend mit meiner Mutter geredet.,geredet,940.1361235380173,943.0196061134338,943.4029866456985,None,955.320251584053,956.337110042572,956.7370059490204,None,./data/Subject_08/Session_00/Exp_data/2020_Jul_24_1223/rec_QA_run_02_block_000_trial_002.wav,08,00,English,A2,True,False,True,False,False,True,True,True,True,True,True,True,No,2,No,No,No,No,2020_Jul_24_1223,nibs_stage_1,3.2.3,60.02366999391793,
2,0,2,0,,,,,0,0,0,0,3,0,3,0,,,,,,,,,,,,,,,,,,,,,,,,,,,,,,,,,,,,,,,,,,,,,,,,,Listen to the question and speak out your answer!,959.8042211532593,None,959.787156701088,961.8039200305939,Ich musste heute Morgen richtig schnell nach der Busstation laufen.,laufen,961.1872266530991,965.0377161502838,965.4207805395126,966.4374539852142,976.3880356550217,977.4047031402588,977.8047921657562,None,./data/Subject_08/Session_00/Exp_data/2020_Jul_24_1223/rec_QA_run_02_block_000_trial_003.wav,08,00,English,A2,True,False,True,False,False,True,True,True,True,True,True,True,No,2,No,No,No,No,2020_Jul_24_1223,nibs_stage_1,3.2.3,60.02366999391793,
2,0,2,0,,,,,0,0,0,0,4,0,4,0,,,,,,,,,,,,,,,,,,,,,,,,,,,,,,,,,,,,,,,,,,,,,,,,,Listen to the question and speak out your answer!,980.8724570274353,None,980.8549126386642,982.8717060089111,Ich habe gerade meine Bewerbung bei der Universität eingereicht. ,eingereicht,982.2550095319748,None,986.4219776391983,None,997.4557875394821,None,998.8726530075073,None,./data/Subject_08/Session_00/Exp_data/2020_Jul_24_1223/rec_QA_run_02_block_000_trial_004.wav,08,00,English,A2,True,False,True,False,False,True,True,True,True,True,True,True,No,2,No,No,No,No,2020_Jul_24_1223,nibs_stage_1,3.2.3,60.02366999391793,
2,0,2,0,,,,,0,0,0,0,5,0,5,0,,,,,,,,,,,,,,,,,,,,,,,,,,,,,,,,,,,,,,,,,,,,,,,,,Listen to the question and speak out your answer!,1001.9394490718842,None,1001.9060201644897,1003.9394569396973,Muss ich mit dem Bus fahren oder kann ich zu Fuß gehen?,gehen,1003.3227585554123,1006.4065079689026,1006.7896064519882,1007.806324005127,1018.5236765146255,None,1019.9403171539307,None,./data/Subject_08/Session_00/Exp_data/2020_Jul_24_1223/rec_QA_run_02_block_000_trial_005.wav,08,00,English,A2,True,False,True,False,False,True,True,True,True,True,True,True,No,2,No,No,No,No,2020_Jul_24_1223,nibs_stage_1,3.2.3,60.02366999391793,
2,0,2,0,,,,,0,0,0,0,6,0,6,0,,,,,,,,,,,,,,,,,,,,,,,,,,,,,,,,,,,,,,,,,,,,,,,,,Listen to the question and speak out your answer!,1022.9572999477386,None,1022.940452337265,1024.9572479724884,An Regentagen benutzen die Leute einen Regenschirm.,benutzen,1024.3405355215073,1027.6906950473785,1028.074070572853,None,1039.5413864850998,1040.5580451488495,1040.9581639766693,None,./data/Subject_08/Session_00/Exp_data/2020_Jul_24_1223/rec_QA_run_02_block_000_trial_006.wav,08,00,English,A2,True,False,True,False,False,True,True,True,True,True,True,True,No,2,No,No,No,No,2020_Jul_24_1223,nibs_stage_1,3.2.3,60.02366999391793,
2,0,2,0,,,,,0,0,0,0,7,0,7,0,,,,,,,,,,,,,,,,,,,,,,,,,,,,,,,,,,,,,,,,,,,,,,,,,Listen to the question and speak out your answer!,1044.008635044098,None,1043.9915552139282,1046.0083270072937,Der Tourist fragte nach dem Weg zum Opernhaus.,fragte,1045.3916264772415,1048.608458995819,1048.9584716558456,None,1060.5924144983292,None,1062.0091390609741,None,./data/Subject_08/Session_00/Exp_data/2020_Jul_24_1223/rec_QA_run_02_block_000_trial_007.wav,08,00,English,A2,True,False,True,False,False,True,True,True,True,True,True,True,No,2,No,No,No,No,2020_Jul_24_1223,nibs_stage_1,3.2.3,60.02366999391793,
2,0,2,0,,,,,0,0,0,0,8,0,8,0,,,,,,,,,,,,,,,,,,,,,,,,,,,,,,,,,,,,,,,,,,,,,,,,,Listen to the question and speak out your answer!,1065.059875011444,None,1065.0426483154297,1067.0594191551208,Meine kleine Schwester spielt draußen im Garten.,spielt,1066.442722439766,1069.4595510959625,1069.8428295850754,1070.8596229553223,1081.643504500389,1082.6603591442108,1083.0601880550385,None,./data/Subject_08/Session_00/Exp_data/2020_Jul_24_1223/rec_QA_run_02_block_000_trial_008.wav,08,00,English,A2,True,False,True,False,False,True,True,True,True,True,True,True,No,2,No,No,No,No,2020_Jul_24_1223,nibs_stage_1,3.2.3,60.02366999391793,
2,0,2,0,,,,,0,0,0,0,9,0,9,0,,,,,,,,,,,,,,,,,,,,,,,,,,,,,,,,,,,,,,,,,,,,,,,,,Listen to the question and speak out your answer!,1086.1271059513092,None,1086.0937671661377,1088.1271851062775,Ihr Regenschirm kann Sie vor dem Regen schützen.,schützen,1087.5104736089706,1090.2277009487152,1090.6106544733047,None,1102.7113336324692,None,1104.1281509399414,None,./data/Subject_08/Session_00/Exp_data/2020_Jul_24_1223/rec_QA_run_02_block_000_trial_009.wav,08,00,English,A2,True,False,True,False,False,True,True,True,True,True,True,True,No,2,No,No,No,No,2020_Jul_24_1223,nibs_stage_1,3.2.3,60.02366999391793,
2,0,2,0,,,,,0,0,0,0,10,0,10,0,,,,,,,,,,,,,,,,,,,,,,,,,,,,,,,,,,,,,,,,,,,,,,,,,Listen to the question and speak out your answer!,1107.1615591049194,None,1107.144938826561,1109.1616139411926,"Ich habe eine verletzte Hand, kannst du bitte die Knöpfe meiner Jacke öffnen?",öffnen,1108.5450044870377,None,1113.17859852314,None,1123.7458494901657,None,1125.1624879837036,None,./data/Subject_08/Session_00/Exp_data/2020_Jul_24_1223/rec_QA_run_02_block_000_trial_010.wav,08,00,English,A2,True,False,True,False,False,True,True,True,True,True,True,True,No,2,No,No,No,No,2020_Jul_24_1223,nibs_stage_1,3.2.3,60.02366999391793,
2,0,2,0,,,,,0,0,0,0,11,0,11,0,,,,,,,,,,,,,,,,,,,,,,,,,,,,,,,,,,,,,,,,,,,,,,,,,Listen to the question and speak out your answer!,1128.212569952011,None,1128.19602227211,1130.2128231525421,"Der Arzt hat gesagt, ich sähe völlig gesund aus.",gesagt,1129.596029639244,None,1133.0629855394363,1134.079600095749,1144.8136016130447,None,1146.230241060257,None,./data/Subject_08/Session_00/Exp_data/2020_Jul_24_1223/rec_QA_run_02_block_000_trial_011.wav,08,00,English,A2,True,False,True,False,False,True,True,True,True,True,True,True,No,2,No,No,No,No,2020_Jul_24_1223,nibs_stage_1,3.2.3,60.02366999391793,
2,0,2,0,,,,,0,0,0,0,12,0,12,0,,,,,,,,,,,,,,,,,,,,,,,,,,,,,,,,,,,,,,,,,,,,,,,,,Listen to the question and speak out your answer!,1149.247102022171,None,1149.2305753231049,1151.2472190856934,Das Lagerfeuer hat zwei Stunden lang gebrannt.,gebrannt,1150.630555510521,None,1153.7973095178604,1154.8140909671783,1165.831248641014,1166.847955942154,1167.2479929924011,None,./data/Subject_08/Session_00/Exp_data/2020_Jul_24_1223/rec_QA_run_02_block_000_trial_012.wav,08,00,English,A2,True,False,True,False,False,True,True,True,True,True,True,True,No,2,No,No,No,No,2020_Jul_24_1223,nibs_stage_1,3.2.3,60.02366999391793,
2,0,2,0,,,,,0,0,0,0,13,0,13,0,,,,,,,,,,,,,,,,,,,,,,,,,,,,,,,,,,,,,,,,,,,,,,,,,Listen to the question and speak out your answer!,1170.2981941699982,None,1170.2814762592316,1172.2982490062714,Bei der Bewerbung müssen Sie Ihre Motivation begründen.,begründen,1171.681570649147,1174.9317259788513,1175.315094590187,1176.3318030834198,1186.8823574781418,None,1188.2991061210632,None,./data/Subject_08/Session_00/Exp_data/2020_Jul_24_1223/rec_QA_run_02_block_000_trial_013.wav,08,00,English,A2,True,False,True,False,False,True,True,True,True,True,True,True,No,2,No,No,No,No,2020_Jul_24_1223,nibs_stage_1,3.2.3,60.02366999391793,
2,0,2,0,,,,,0,0,0,0,14,0,14,0,,,,,,,,,,,,,,,,,,,,,,,,,,,,,,,,,,,,,,,,,,,,,,,,,Listen to the question and speak out your answer!,1191.3673379421234,None,1191.349269747734,1193.36603307724,Alle Schüler müssen die Vorschrift halten.,halten,1192.7493425607681,1195.1662299633026,1195.5494755506516,1196.5662200450897,1207.950144648552,None,1209.3669300079346,None,./data/Subject_08/Session_00/Exp_data/2020_Jul_24_1223/rec_QA_run_02_block_000_trial_014.wav,08,00,English,A2,True,False,True,False,False,True,True,True,True,True,True,True,No,2,No,No,No,No,2020_Jul_24_1223,nibs_stage_1,3.2.3,60.02366999391793,
2,0,2,0,,,,,0,0,0,0,15,0,15,0,,,,,,,,,,,,,,,,,,,,,,,,,,,,,,,,,,,,,,,,,,,,,,,,,Listen to the question and speak out your answer!,1212.4337821006775,None,1212.4003393650055,1214.4337861537933,Bitte bilden Sie einfache Sätze.,bilden,1213.8170026540756,None,1216.3505514860153,1217.367280960083,1229.017895579338,None,1230.434669971466,None,./data/Subject_08/Session_00/Exp_data/2020_Jul_24_1223/rec_QA_run_02_block_000_trial_015.wav,08,00,English,A2,True,False,True,False,False,True,True,True,True,True,True,True,No,2,No,No,No,No,2020_Jul_24_1223,nibs_stage_1,3.2.3,60.02366999391793,
2,0,2,0,,,,,0,0,0,0,16,0,16,0,,,,,,,,,,,,,,,,,,,,,,,,,,,,,,,,,,,,,,,,,,,,,,,,,Listen to the question and speak out your answer!,1233.4684510231018,None,1233.45145881176,1235.468141078949,Sebastian mag lieber ein schwarzes Brot mit Butter und Marmelade.,mag,1234.8515385389328,None,1239.4517644643784,None,1250.0523966550827,1251.069039106369,1251.46906208992,None,./data/Subject_08/Session_00/Exp_data/2020_Jul_24_1223/rec_QA_run_02_block_000_trial_016.wav,08,00,English,A2,True,False,True,False,False,True,True,True,True,True,True,True,No,2,No,No,No,No,2020_Jul_24_1223,nibs_stage_1,3.2.3,60.02366999391793,
2,0,2,0,,,,,0,0,0,0,17,0,17,0,,,,,,,,,,,,,,,,,,,,,,,,,,,,,,,,,,,,,,,,,,,,,,,,,Listen to the question and speak out your answer!,1254.5359690189362,None,1254.5025432109833,1256.536010980606,Christoph Kolumbus hat am vierzehn zweiundneunzig Amerika entdeckt.,entdeckt,1255.9192935228348,None,1260.619533419609,None,1271.1201876401901,None,1272.5368859767914,None,./data/Subject_08/Session_00/Exp_data/2020_Jul_24_1223/rec_QA_run_02_block_000_trial_017.wav,08,00,English,A2,True,False,True,False,False,True,True,True,True,True,True,True,No,2,No,No,No,No,2020_Jul_24_1223,nibs_stage_1,3.2.3,60.02366999391793,
2,0,2,0,,,,,0,0,0,0,18,0,18,0,,,,,,,,,,,,,,,,,,,,,,,,,,,,,,,,,,,,,,,,,,,,,,,,,Listen to the question and speak out your answer!,1275.570594072342,None,1275.5537637472153,1277.570424079895,"Die Augen meines Sohnes glänzten, als er das Geschenk sah.",sah,1276.9537216424942,1280.4375350475311,1280.820605635643,None,1292.1545244455338,None,1293.5713131427765,None,./data/Subject_08/Session_00/Exp_data/2020_Jul_24_1223/rec_QA_run_02_block_000_trial_018.wav,08,00,English,A2,True,False,True,False,False,True,True,True,True,True,True,True,No,2,No,No,No,No,2020_Jul_24_1223,nibs_stage_1,3.2.3,60.02366999391793,
2,0,2,0,,,,,0,0,0,0,19,0,19,0,,,,,,,,,,,,,,,,,,,,,,,,,,,,,,,,,,,,,,,,,,,,,,,,,Listen to the question and speak out your answer!,1296.6215870380402,None,1296.604769229889,1298.6215291023254,Bei der Ausreise wird der Pass kontrolliert.,kontrolliert,1298.0048245191574,1300.5553710460663,1300.9383164644241,1301.9550399780273,1313.2056354284286,None,1314.622358083725,None,./data/Subject_08/Session_00/Exp_data/2020_Jul_24_1223/rec_QA_run_02_block_000_trial_019.wav,08,00,English,A2,True,False,True,False,False,True,True,True,True,True,True,True,No,2,No,No,No,No,2020_Jul_24_1223,nibs_stage_1,3.2.3,60.02366999391793,
2,0,2,0,,,,,0,0,0,0,20,0,20,0,,,,,,,,,,,,,,,,,,,,,,,,,,,,,,,,,,,,,,,,,,,,,,,,,Listen to the question and speak out your answer!,1317.673171043396,None,1317.6557703018188,1319.6726350784302,Ich habe gestern einen interessanten Mann kennen gelernt.,kennen,1319.0559245347977,1322.4061119556427,1322.789444565773,None,1334.2566455602646,None,1335.6734759807587,None,./data/Subject_08/Session_00/Exp_data/2020_Jul_24_1223/rec_QA_run_02_block_000_trial_020.wav,08,00,English,A2,True,False,True,False,False,True,True,True,True,True,True,True,No,2,No,No,No,No,2020_Jul_24_1223,nibs_stage_1,3.2.3,60.02366999391793,
2,0,2,0,,,,,0,0,0,0,21,0,21,0,,,,,,,,,,,,,,,,,,,,,,,,,,,,,,,,,,,,,,,,,,,,,,,,,Listen to the question and speak out your answer!,1338.7242209911346,None,1338.7069551944733,1340.7237269878387,"Lebensmittel sind die Dinge, die man essen kann.",essen,1340.1070436239243,None,1343.3739045858383,None,1355.3079015016556,None,1356.7245931625366,None,./data/Subject_08/Session_00/Exp_data/2020_Jul_24_1223/rec_QA_run_02_block_000_trial_021.wav,08,00,English,A2,True,False,True,False,False,True,True,True,True,True,True,True,No,2,No,No,No,No,2020_Jul_24_1223,nibs_stage_1,3.2.3,60.02366999391793,
2,0,2,0,,,,,0,0,0,0,22,0,22,0,,,,,,,,,,,,,,,,,,,,,,,,,,,,,,,,,,,,,,,,,,,,,,,,,Listen to the question and speak out your answer!,1359.7916941642761,None,1359.7746976613998,1361.791489124298,Das Sprachinstitut bietet Kurse für Anfänger an.,bietet,1361.1747895479202,1364.4582951068878,1364.8416484594345,1365.858421087265,1376.3755766153336,None,1377.7922780513763,None,./data/Subject_08/Session_00/Exp_data/2020_Jul_24_1223/rec_QA_run_02_block_000_trial_022.wav,08,00,English,A2,True,False,True,False,False,True,True,True,True,True,True,True,No,2,No,No,No,No,2020_Jul_24_1223,nibs_stage_1,3.2.3,60.02366999391793,
2,0,2,0,,,,,0,0,0,0,23,0,23,0,,,,,,,,,,,,,,,,,,,,,,,,,,,,,,,,,,,,,,,,,,,,,,,,,Listen to the question and speak out your answer!,1380.7930710315704,None,1380.775799870491,1382.792580127716,"Der Arzt sagt, mein Knie ist in Ordnung, aber meine Beine scheinen gebrochen zu sein.",scheinen,1382.1758974790573,None,1387.8428574800491,None,1397.3767005205154,None,1398.7934300899506,None,./data/Subject_08/Session_00/Exp_data/2020_Jul_24_1223/rec_QA_run_02_block_000_trial_023.wav,08,00,English,A2,True,False,True,False,False,True,True,True,True,True,True,True,No,2,No,No,No,No,2020_Jul_24_1223,nibs_stage_1,3.2.3,60.02366999391793,
2,0,2,0,,,,,0,0,0,0,24,0,24,0,,,,,,,,,,,,,,,,,,,,,,,,,,,,,,,,,,,,,,,,,,,,,,,,,Listen to the question and speak out your answer!,1401.8604209423065,None,1401.826827287674,1403.8604249954224,"Bitte zieh deinen Mantel an, es ist kalt draußen.",zieh,1403.2438465356827,1406.3607001304626,1406.7439225912094,None,1418.4444485902786,None,1419.861268043518,None,./data/Subject_08/Session_00/Exp_data/2020_Jul_24_1223/rec_QA_run_02_block_000_trial_024.wav,08,00,English,A2,True,False,True,False,False,True,True,True,True,True,True,True,No,2,No,No,No,No,2020_Jul_24_1223,nibs_stage_1,3.2.3,60.02366999391793,
2,0,2,0,,,,,0,0,0,0,,,,,,,,,,,,,,,,,,,,,,,,,,,,,,,,,,,,,,,,,,1423.8781559467316,None,,,,,,,,,,,,,,,,,,,,,,,,,,08,00,English,A2,True,False,True,False,False,True,True,True,True,True,True,True,No,2,No,No,No,No,2020_Jul_24_1223,nibs_stage_1,3.2.3,60.02366999391793,
2,0,2,0,,,,,1,0,1,0,0,0,0,0,,,,,,,,,,,,,,,,,,,,,,,,,,,,,,,,,,,,,,,,,,,,,,,,,Listen to the question and speak out your answer!,1451.5963561534882,None,1451.563059926033,1453.59637093544,Blut fließt aus einer Wunde.,fließt,1452.9796866178513,1454.8296649456024,1455.1796904802322,1456.1964070796967,1468.1804126501083,1469.1970829963684,1469.5971040725708,None,./data/Subject_08/Session_00/Exp_data/2020_Jul_24_1223/rec_QA_run_02_block_001_trial_000.wav,08,00,English,A2,True,False,True,False,False,True,True,True,True,True,True,True,No,2,No,No,No,No,2020_Jul_24_1223,nibs_stage_1,3.2.3,60.02366999391793,
2,0,2,0,,,,,1,0,1,0,1,0,1,0,,,,,,,,,,,,,,,,,,,,,,,,,,,,,,,,,,,,,,,,,,,,,,,,,Listen to the question and speak out your answer!,1472.6139750480652,None,1472.597264289856,1474.6140899658203,Ich entschuldige bitte meine Verspätung.,entschuldige,1473.9975105524063,1476.347470998764,1476.7308255434036,None,1489.1981714963913,None,1490.6148891448975,None,./data/Subject_08/Session_00/Exp_data/2020_Jul_24_1223/rec_QA_run_02_block_001_trial_001.wav,08,00,English,A2,True,False,True,False,False,True,True,True,True,True,True,True,No,2,No,No,No,No,2020_Jul_24_1223,nibs_stage_1,3.2.3,60.02366999391793,
2,0,2,0,,,,,1,0,1,0,2,0,2,0,,,,,,,,,,,,,,,,,,,,,,,,,,,,,,,,,,,,,,,,,,,,,,,,,Listen to the question and speak out your answer!,1493.6827840805054,None,1493.6650396585464,1495.6820659637451,Ihr fehlt es an ausreichender Berufserfahrung für diese Position.,fehlt,1495.0651224851608,1499.1153481006622,1499.4986075162888,1500.5154149532318,1510.265886425972,None,1511.6826741695404,None,./data/Subject_08/Session_00/Exp_data/2020_Jul_24_1223/rec_QA_run_02_block_001_trial_002.wav,08,00,English,A2,True,False,True,False,False,True,True,True,True,True,True,True,No,2,No,No,No,No,2020_Jul_24_1223,nibs_stage_1,3.2.3,60.02366999391793,
2,0,2,0,,,,,1,0,1,0,3,0,3,0,,,,,,,,,,,,,,,,,,,,,,,,,,,,,,,,,,,,,,,,,,,,,,,,,Listen to the question and speak out your answer!,1514.750116109848,None,1514.716144323349,1516.749577999115,Der Mörder wollte die Gründe für seine Tat nicht nennen.,nennen,1516.1328815221786,1519.1497781276703,1519.4997276067734,None,1531.3337174654007,None,1532.7504169940948,None,./data/Subject_08/Session_00/Exp_data/2020_Jul_24_1223/rec_QA_run_02_block_001_trial_003.wav,08,00,English,A2,True,False,True,False,False,True,True,True,True,True,True,True,No,2,No,No,No,No,2020_Jul_24_1223,nibs_stage_1,3.2.3,60.02366999391793,
2,0,2,0,,,,,1,0,1,0,4,0,4,0,,,,,,,,,,,,,,,,,,,,,,,,,,,,,,,,,,,,,,,,,,,,,,,,,Listen to the question and speak out your answer!,1535.7674860954285,None,1535.7505612373352,1537.76735496521,Die Abgase der Benzinmotoren werden die Luft verschmutzen.,verschmutzen,1537.1506816148758,None,1541.1175204515457,1542.1343131065369,1552.3347824811935,None,1553.7515139579773,None,./data/Subject_08/Session_00/Exp_data/2020_Jul_24_1223/rec_QA_run_02_block_001_trial_004.wav,08,00,English,A2,True,False,True,False,False,True,True,True,True,True,True,True,No,2,No,No,No,No,2020_Jul_24_1223,nibs_stage_1,3.2.3,60.02366999391793,
2,0,2,0,,,,,1,0,1,0,5,0,5,0,,,,,,,,,,,,,,,,,,,,,,,,,,,,,,,,,,,,,,,,,,,,,,,,,Listen to the question and speak out your answer!,1556.8186190128326,None,1556.8016778230667,1558.8185260295868,Die Gäste gratulieren dem jungen Paar herzlich zur Hochzeit.,gratulieren,1558.201728463173,1561.9852809906006,1562.3685284852982,1563.3853509426117,1573.4025605916977,None,1574.8192830085754,None,./data/Subject_08/Session_00/Exp_data/2020_Jul_24_1223/rec_QA_run_02_block_001_trial_005.wav,08,00,English,A2,True,False,True,False,False,True,True,True,True,True,True,True,No,2,No,No,No,No,2020_Jul_24_1223,nibs_stage_1,3.2.3,60.02366999391793,
2,0,2,0,,,,,1,0,1,0,6,0,6,0,,,,,,,,,,,,,,,,,,,,,,,,,,,,,,,,,,,,,,,,,,,,,,,,,Listen to the question and speak out your answer!,1577.8876359462738,None,1577.8694397211075,1579.886218070984,Was bedeutet Pressefreiheit für dich?,bedeutet,1579.2695084810257,1581.5196421146393,1581.902948498726,1582.9197051525116,1594.4703015089035,None,1595.887156009674,None,./data/Subject_08/Session_00/Exp_data/2020_Jul_24_1223/rec_QA_run_02_block_001_trial_006.wav,08,00,English,A2,True,False,True,False,False,True,True,True,True,True,True,True,No,2,No,No,No,No,2020_Jul_24_1223,nibs_stage_1,3.2.3,60.02366999391793,
2,0,2,0,,,,,1,0,1,0,7,0,7,0,,,,,,,,,,,,,,,,,,,,,,,,,,,,,,,,,,,,,,,,,,,,,,,,,Listen to the question and speak out your answer!,1598.9214129447937,None,1598.9038697481155,1600.9206659793854,Ich habe einen Platz für die Oper reserviert.,reserviert,1600.3039594888687,None,1603.4374424219131,None,1615.5047985315323,None,1616.9215331077576,None,./data/Subject_08/Session_00/Exp_data/2020_Jul_24_1223/rec_QA_run_02_block_001_trial_007.wav,08,00,English,A2,True,False,True,False,False,True,True,True,True,True,True,True,No,2,No,No,No,No,2020_Jul_24_1223,nibs_stage_1,3.2.3,60.02366999391793,
2,0,2,0,,,,,1,0,1,0,8,0,8,0,,,,,,,,,,,,,,,,,,,,,,,,,,,,,,,,,,,,,,,,,,,,,,,,,Listen to the question and speak out your answer!,1619.9555549621582,None,1619.9217042922974,1621.9551601409912,In Wien besuchen die Touristen am liebsten den Stephansdom und das Schloss Schönbrunn.,besuchen,1621.3050376176834,None,1626.7386945486069,None,1636.505994439125,None,1637.9226450920105,None,./data/Subject_08/Session_00/Exp_data/2020_Jul_24_1223/rec_QA_run_02_block_001_trial_008.wav,08,00,English,A2,True,False,True,False,False,True,True,True,True,True,True,True,No,2,No,No,No,No,2020_Jul_24_1223,nibs_stage_1,3.2.3,60.02366999391793,
2,0,2,0,,,,,1,0,1,0,9,0,9,0,,,,,,,,,,,,,,,,,,,,,,,,,,,,,,,,,,,,,,,,,,,,,,,,,Listen to the question and speak out your answer!,1640.989774942398,None,1640.9727746248245,1642.9895639419556,"Schauen Sie nach draußen, der Schnee fällt.",fällt,1642.3728505373,1644.9566271305084,1645.3396414518356,None,1657.5736685991287,None,1658.9903559684753,None,./data/Subject_08/Session_00/Exp_data/2020_Jul_24_1223/rec_QA_run_02_block_001_trial_009.wav,08,00,English,A2,True,False,True,False,False,True,True,True,True,True,True,True,No,2,No,No,No,No,2020_Jul_24_1223,nibs_stage_1,3.2.3,60.02366999391793,
2,0,2,0,,,,,1,0,1,0,10,0,10,0,,,,,,,,,,,,,,,,,,,,,,,,,,,,,,,,,,,,,,,,,,,,,,,,,Listen to the question and speak out your answer!,1662.0242171287537,None,1662.0074096918106,1664.0240981578827,Der Autohändler hat auf der Messe zehn Sportwagen eingekauft.,eingekauft,1663.4072176218033,1667.1908881664276,1667.5741945505142,None,1678.574769616127,None,1679.991541147232,None,./data/Subject_08/Session_00/Exp_data/2020_Jul_24_1223/rec_QA_run_02_block_001_trial_010.wav,08,00,English,A2,True,False,True,False,False,True,True,True,True,True,True,True,No,2,No,No,No,No,2020_Jul_24_1223,nibs_stage_1,3.2.3,60.02366999391793,
2,0,2,0,,,,,1,0,1,0,11,0,11,0,,,,,,,,,,,,,,,,,,,,,,,,,,,,,,,,,,,,,,,,,,,,,,,,,Listen to the question and speak out your answer!,1683.0584321022034,None,1683.0250363349915,1685.0584681034088,Bitte waschen Sie Ihre Hände mit Seife.,waschen,1684.441759467125,1686.9585580825806,1687.3085814714432,None,1699.6425725221634,1700.6592149734497,1701.059317111969,None,./data/Subject_08/Session_00/Exp_data/2020_Jul_24_1223/rec_QA_run_02_block_001_trial_011.wav,08,00,English,A2,True,False,True,False,False,True,True,True,True,True,True,True,No,2,No,No,No,No,2020_Jul_24_1223,nibs_stage_1,3.2.3,60.02366999391793,
2,0,2,0,,,,,1,0,1,0,12,0,12,0,,,,,,,,,,,,,,,,,,,,,,,,,,,,,,,,,,,,,,,,,,,,,,,,,Listen to the question and speak out your answer!,1704.0768899917603,None,1704.0428048372269,1706.0762259960175,Ich konnte die Lärmquelle finden.,finden,1705.4265185594559,None,1707.8596686124802,1708.876296043396,1720.6270176172256,None,1722.0437829494476,None,./data/Subject_08/Session_00/Exp_data/2020_Jul_24_1223/rec_QA_run_02_block_001_trial_012.wav,08,00,English,A2,True,False,True,False,False,True,True,True,True,True,True,True,No,2,No,No,No,No,2020_Jul_24_1223,nibs_stage_1,3.2.3,60.02366999391793,
2,0,2,0,,,,,1,0,1,0,13,0,13,0,,,,,,,,,,,,,,,,,,,,,,,,,,,,,,,,,,,,,,,,,,,,,,,,,Listen to the question and speak out your answer!,1725.1113059520721,None,1725.0772593021393,1727.110692024231,"In der Schule lernen die Kinder lesen, schreiben und rechnen.",lernen,1726.4939116239548,None,1730.5941134691238,None,1741.6948064565659,None,1743.1116609573364,None,./data/Subject_08/Session_00/Exp_data/2020_Jul_24_1223/rec_QA_run_02_block_001_trial_013.wav,08,00,English,A2,True,False,True,False,False,True,True,True,True,True,True,True,No,2,No,No,No,No,2020_Jul_24_1223,nibs_stage_1,3.2.3,60.02366999391793,
2,0,2,0,,,,,1,0,1,0,14,0,14,0,,,,,,,,,,,,,,,,,,,,,,,,,,,,,,,,,,,,,,,,,,,,,,,,,Listen to the question and speak out your answer!,1746.145761013031,None,1746.1117203235626,1748.1452181339264,"Hiermit wird bestätigt, dass Frau Müller das Praktikum bei uns absolviert hat.",bestätigt,1747.5285085439682,1752.1120300292969,1752.4953805208206,None,1762.7292634248734,None,1764.1460061073303,None,./data/Subject_08/Session_00/Exp_data/2020_Jul_24_1223/rec_QA_run_02_block_001_trial_014.wav,08,00,English,A2,True,False,True,False,False,True,True,True,True,True,True,True,No,2,No,No,No,No,2020_Jul_24_1223,nibs_stage_1,3.2.3,60.02366999391793,
2,0,2,0,,,,,1,0,1,0,15,0,15,0,,,,,,,,,,,,,,,,,,,,,,,,,,,,,,,,,,,,,,,,,,,,,,,,,Listen to the question and speak out your answer!,1767.1805601119995,None,1767.1628507375717,1769.1795930862427,"Alchemisten haben geglaubt, sie können Gold herstellen.",herstellen,1768.562886595726,None,1772.429778456688,None,1783.7637165784836,None,1785.1803970336914,None,./data/Subject_08/Session_00/Exp_data/2020_Jul_24_1223/rec_QA_run_02_block_001_trial_015.wav,08,00,English,A2,True,False,True,False,False,True,True,True,True,True,True,True,No,2,No,No,No,No,2020_Jul_24_1223,nibs_stage_1,3.2.3,60.02366999391793,
2,0,2,0,,,,,1,0,1,0,16,0,16,0,,,,,,,,,,,,,,,,,,,,,,,,,,,,,,,,,,,,,,,,,,,,,,,,,Listen to the question and speak out your answer!,1788.2489049434662,None,1788.2306166887283,1790.247390985489,"In den Zeitungen , im Radio und im Fernsehen wird regelmäßig über Sport berichtet.",berichtet,1789.6306816339493,None,1795.231087565422,1796.2477059364319,1804.8315654993057,None,1806.2483079433441,None,./data/Subject_08/Session_00/Exp_data/2020_Jul_24_1223/rec_QA_run_02_block_001_trial_016.wav,08,00,English,A2,True,False,True,False,False,True,True,True,True,True,True,True,No,2,No,No,No,No,2020_Jul_24_1223,nibs_stage_1,3.2.3,60.02366999391793,
2,0,2,0,,,,,1,0,1,0,17,0,17,0,,,,,,,,,,,,,,,,,,,,,,,,,,,,,,,,,,,,,,,,,,,,,,,,,Listen to the question and speak out your answer!,1809.2833230495453,None,1809.26502764225,1811.2818291187286,Junge Leute machen gerne Partys.,machen,1810.6318806409836,None,1813.4986156225204,1814.515342950821,1825.8326035737991,None,1827.2493650913239,None,./data/Subject_08/Session_00/Exp_data/2020_Jul_24_1223/rec_QA_run_02_block_001_trial_017.wav,08,00,English,A2,True,False,True,False,False,True,True,True,True,True,True,True,No,2,No,No,No,No,2020_Jul_24_1223,nibs_stage_1,3.2.3,60.02366999391793,
2,0,2,0,,,,,1,0,1,0,18,0,18,0,,,,,,,,,,,,,,,,,,,,,,,,,,,,,,,,,,,,,,,,,,,,,,,,,Listen to the question and speak out your answer!,1830.3169920444489,None,1830.2995208501816,1832.316269159317,Lenas Hund Tobi wird immer am Abend gefüttert.,gefüttert,1831.699674487114,None,1835.0332034826279,None,1846.900379538536,None,1848.3171401023865,None,./data/Subject_08/Session_00/Exp_data/2020_Jul_24_1223/rec_QA_run_02_block_001_trial_018.wav,08,00,English,A2,True,False,True,False,False,True,True,True,True,True,True,True,No,2,No,No,No,No,2020_Jul_24_1223,nibs_stage_1,3.2.3,60.02366999391793,
2,0,2,0,,,,,1,0,1,0,19,0,19,0,,,,,,,,,,,,,,,,,,,,,,,,,,,,,,,,,,,,,,,,,,,,,,,,,Listen to the question and speak out your answer!,1851.4012989997864,None,1851.3672677278519,1853.4007370471954,"Ich rechne fest damit, dass er kommt.",rechne,1852.7840305566788,None,1855.5508624315262,None,1867.9848054647446,None,1869.4016089439392,None,./data/Subject_08/Session_00/Exp_data/2020_Jul_24_1223/rec_QA_run_02_block_001_trial_019.wav,08,00,English,A2,True,False,True,False,False,True,True,True,True,True,True,True,No,2,No,No,No,No,2020_Jul_24_1223,nibs_stage_1,3.2.3,60.02366999391793,
2,0,2,0,,,,,1,0,1,0,20,0,20,0,,,,,,,,,,,,,,,,,,,,,,,,,,,,,,,,,,,,,,,,,,,,,,,,,Listen to the question and speak out your answer!,1872.4190480709076,None,1872.3850597143173,1874.418529033661,"Zu den hundeartigen Tieren, die in Österreich leben, gehört der Wolf.",gehört,1873.768490433693,None,1878.6020675897598,1879.6187751293182,1888.9694014787674,None,1890.3860471248627,None,./data/Subject_08/Session_00/Exp_data/2020_Jul_24_1223/rec_QA_run_02_block_001_trial_020.wav,08,00,English,A2,True,False,True,False,False,True,True,True,True,True,True,True,No,2,No,No,No,No,2020_Jul_24_1223,nibs_stage_1,3.2.3,60.02366999391793,
2,0,2,0,,,,,1,0,1,0,21,0,21,0,,,,,,,,,,,,,,,,,,,,,,,,,,,,,,,,,,,,,,,,,,,,,,,,,Listen to the question and speak out your answer!,1893.4532420635223,None,1893.4361897706985,1895.4529449939728,Meine Großtante starb letztes Jahr und wurde neben ihrem Mann begraben.,begraben,1894.8362604379654,1899.1535789966583,1899.5365196466446,None,1910.0370715856552,None,1911.4538810253143,None,./data/Subject_08/Session_00/Exp_data/2020_Jul_24_1223/rec_QA_run_02_block_001_trial_021.wav,08,00,English,A2,True,False,True,False,False,True,True,True,True,True,True,True,No,2,No,No,No,No,2020_Jul_24_1223,nibs_stage_1,3.2.3,60.02366999391793,
2,0,2,0,,,,,1,0,1,0,22,0,22,0,,,,,,,,,,,,,,,,,,,,,,,,,,,,,,,,,,,,,,,,,,,,,,,,,Listen to the question and speak out your answer!,1914.4879429340363,None,1914.4539783000946,1916.4874250888824,Menschen und Firmen können ein Konto bei der Bank eröffnen.,eröffnen,1915.8707126379013,1919.2209720611572,1919.6042515039444,None,1931.0714756250381,1932.088364124298,1932.488163948059,None,./data/Subject_08/Session_00/Exp_data/2020_Jul_24_1223/rec_QA_run_02_block_001_trial_022.wav,08,00,English,A2,True,False,True,False,False,True,True,True,True,True,True,True,No,2,No,No,No,No,2020_Jul_24_1223,nibs_stage_1,3.2.3,60.02366999391793,
2,0,2,0,,,,,1,0,1,0,23,0,23,0,,,,,,,,,,,,,,,,,,,,,,,,,,,,,,,,,,,,,,,,,,,,,,,,,Listen to the question and speak out your answer!,1935.5220470428467,None,1935.5052016973495,1937.5218591690063,Zu Ostern gibt es für Kinder Ostereier und Süßigkeiten.,gibt,1936.9051505327225,None,1941.0386224985123,None,1952.105989575386,None,1953.5226941108704,None,./data/Subject_08/Session_00/Exp_data/2020_Jul_24_1223/rec_QA_run_02_block_001_trial_023.wav,08,00,English,A2,True,False,True,False,False,True,True,True,True,True,True,True,No,2,No,No,No,No,2020_Jul_24_1223,nibs_stage_1,3.2.3,60.02366999391793,
2,0,2,0,,,,,1,0,1,0,24,0,24,0,,,,,,,,,,,,,,,,,,,,,,,,,,,,,,,,,,,,,,,,,,,,,,,,,Listen to the question and speak out your answer!,1956.5571179389954,None,1956.539480805397,1958.5563960075378,"Der Klima Schutz soll verhindern, dass es auf der Erde immer wärmer wird.",verhindern,1957.9396024942398,1962.089823961258,1962.473202586174,1963.489895105362,1973.140515446663,1974.1571300029755,1974.5571310520172,None,./data/Subject_08/Session_00/Exp_data/2020_Jul_24_1223/rec_QA_run_02_block_001_trial_024.wav,08,00,English,A2,True,False,True,False,False,True,True,True,True,True,True,True,No,2,No,No,No,No,2020_Jul_24_1223,nibs_stage_1,3.2.3,60.02366999391793,
