run.thisRepN,run.thisTrialN,run.thisN,run.thisIndex,artifact_trial.thisRepN,artifact_trial.thisTrialN,artifact_trial.thisN,artifact_trial.thisIndex,QA_block.thisRepN,QA_block.thisTrialN,QA_block.thisN,QA_block.thisIndex,QA_trial.thisRepN,QA_trial.thisTrialN,QA_trial.thisN,QA_trial.thisIndex,fade_in_text.text,fade_in_text.started,fade_in_text.stopped,Artifact_intro_title.started,Artifact_intro_title.stopped,Artifact_intro_text.text,Artifact_intro_text.started,Artifact_intro_text.stopped,Artifact_intro_audio.started,Artifact_intro_audio.stopped,Artifact_intro_cont.started,Artifact_intro_cont.stopped,Artifact_rec_text.text,Artifact_rec_text.started,Artifact_rec_text.stopped,Artifact_rec_beep_hint.started,Artifact_rec_beep_hint.stopped,Artifact_rec_action.started,Artifact_rec_action.stopped,Artifact_rec_beep_start.started,Artifact_rec_beep_start.stopped,Artifact_rec_recording.started,Artifact_rec_recording.stopped,Artifact_rec_beep_end.started,Artifact_rec_beep_end.stopped,Artifact_rec_break.started,Artifact_rec_break.stopped,RS_intro_title.started,RS_intro_title.stopped,RS_intro_text.text,RS_intro_text.started,RS_intro_text.stopped,RS_intro_audio.started,RS_intro_audio.stopped,RS_rec_text.text,RS_rec_text.started,RS_rec_text.stopped,Pause_cont.started,Pause_cont.stopped,QA_intro_title.started,QA_intro_title.stopped,QA_intro_text.text,QA_intro_text.started,QA_intro_text.stopped,QA_intro_audio.started,QA_intro_audio.stopped,QA_intro_cont.started,QA_intro_cont.stopped,QA_rec_text.text,QA_rec_text.started,QA_rec_text.stopped,QA_rec_beep_hint.started,QA_rec_beep_hint.stopped,QA_rec_question.sen_text,QA_rec_question.cen_text,QA_rec_question.started,QA_rec_question.stopped,QA_rec_beep_start.started,QA_rec_beep_start.stopped,QA_rec_beep_end.started,QA_rec_beep_end.stopped,QA_rec_break.started,QA_rec_break.stopped,filename,fade_out_text.text,fade_out_text.started,fade_out_text.stopped,participant,session,First language,German level,Full_screen,Instruction,Intro,Artifact,Cali_pre,Fade_in_out,Artifact_within,Resting_State,QA,Pause,Cali_post,End,Breakpoint_Cali_pre_trial,Breakpoint_Run,Breakpoint_RS_block,Breakpoint_QA_block,Breakpoint_QA_trial,Breakpoint_Cali_post_trial,date,expName,psychopyVersion,frameRate,
2,0,2,0,0,0,0,0,,,,,,,,,Please remain seated until further instruction via the earphone.,66.52023386955261,None,68.55359101295471,None,"  - Task: Artifacts collection   
  - Please follow audio instruction              
",68.55359101295471,None,68.53725345134735,None,94.92163300514221,None,,96.9550108909607,None,96.93865258693695,98.93836307525635,98.33842451572418,None,101.73852260112763,None,103.13878042697907,113.13909006118774,113.53912861347199,None,114.93920087814331,115.93933606147766,,,,,,,,,,,,,,,,,,,,,,,,,,,,,,,,,,,,,,,,,07,00,English,B1,True,False,True,False,False,True,True,True,True,True,True,True,No,2,No,No,No,No,2020_Jul_17_1608,nibs_stage_1,3.2.3,59.99267667521054,
2,0,2,0,1,0,1,0,,,,,,,,,,,,,,,,,,,,,,118.97296190261841,None,118.95632560253144,120.95649099349976,120.33969743251801,None,123.73998243808747,None,125.13995153903961,135.14061284065247,135.54048950672149,None,136.94059085845947,137.94061183929443,,,,,,,,,,,,,,,,,,,,,,,,,,,,,,,,,,,,,,,,,07,00,English,B1,True,False,True,False,False,True,True,True,True,True,True,True,No,2,No,No,No,No,2020_Jul_17_1608,nibs_stage_1,3.2.3,59.99267667521054,
2,0,2,0,2,0,2,0,,,,,,,,,,,,,,,,,,,,,,140.97444605827332,None,140.97451050281524,142.97421002388,142.3575094461441,None,145.75760252475737,None,147.157755446434,157.15819597244263,157.55852348804473,None,158.95837783813477,159.95843195915222,,,,,,,,,,,,,,,,,,,,,,,,,,,,,,,,,,,,,,,,,07,00,English,B1,True,False,True,False,False,True,True,True,True,True,True,True,No,2,No,No,No,No,2020_Jul_17_1608,nibs_stage_1,3.2.3,59.99267667521054,
2,0,2,0,3,0,3,0,,,,,,,,,,,,,,,,,,,,,,162.9917709827423,162.9917709827423,162.97569949626921,164.97521996498108,164.37517554759978,None,167.77525956630706,None,169.17542250156401,179.17606592178345,179.57597143650054,None,180.97596287727356,181.9760799407959,,,,,,,,,,,,,,,,,,,,,,,,,,,,,,,,,,,,,,,,,07,00,English,B1,True,False,True,False,False,True,True,True,True,True,True,True,No,2,No,No,No,No,2020_Jul_17_1608,nibs_stage_1,3.2.3,59.99267667521054,
2,0,2,0,4,0,4,0,,,,,,,,,,,,,,,,,,,,,,184.9933979511261,None,184.99307043552398,186.99319696426392,186.37645943164824,None,189.77678759098052,None,191.17672355175017,201.1772439479828,201.5772565126419,None,202.97735404968262,203.97738194465637,,,,,,,,,,,,,,,,,,,,,,,,,,,,,,,,,,,,,,,,,07,00,English,B1,True,False,True,False,False,True,True,True,True,True,True,True,No,2,No,No,No,No,2020_Jul_17_1608,nibs_stage_1,3.2.3,59.99267667521054,
2,0,2,0,5,0,5,0,,,,,,,,,,,,,,,,,,,,,,207.01064085960388,207.01064085960388,206.9944506406784,208.99408197402954,208.3940175294876,None,211.79424245357512,None,213.19430048465728,223.19473600387573,223.59494550228118,None,224.99490404129028,225.99495887756348,,,,,,,,,,,,,,,,,,,,,,,,,,,,,,,,,,,,,,,,,07,00,English,B1,True,False,True,False,False,True,True,True,True,True,True,True,No,2,No,No,No,No,2020_Jul_17_1608,nibs_stage_1,3.2.3,59.99267667521054,
2,0,2,0,6,0,6,0,,,,,,,,,,,,,,,,,,,,,,229.02852201461792,None,229.0121074438095,231.01188588142395,230.3951936483383,None,233.795286488533,234.79541993141174,235.19543344974517,245.19595503807068,245.5960505723953,None,246.99610900878906,247.9960858821869,,,,,,,,,,,,,,,,,,,,,,,,,,,,,,,,,,,,,,,,,07,00,English,B1,True,False,True,False,False,True,True,True,True,True,True,True,No,2,No,No,No,No,2020_Jul_17_1608,nibs_stage_1,3.2.3,59.99267667521054,
2,0,2,0,7,0,7,0,,,,,,,,,,,,,,,,,,,,,,251.0462610721588,None,251.0298395872116,253.02969598770142,252.41317255496978,255.41315603256226,255.81317765712737,256.8133509159088,257.2131705999374,267.21376299858093,267.6137884378433,None,269.01405692100525,270.0144889354706,,,,,,,,,,,,,,,,,,,,,,,,,,,,,,,,,,,,,,,,,07,00,English,B1,True,False,True,False,False,True,True,True,True,True,True,True,No,2,No,No,No,No,2020_Jul_17_1608,nibs_stage_1,3.2.3,59.99267667521054,
2,0,2,0,8,0,8,0,,,,,,,,,,,,,,,,,,,,,,273.0640790462494,None,273.0476575613022,275.04750895500183,274.4309056520462,277.43094086647034,277.83117945194243,None,279.23104150295256,289.231595993042,289.6315835237503,None,291.03156900405884,292.03169298171997,,,,,,,,,,,,,,,,,,,,,,,,,,,,,,,,,,,,,,,,,07,00,English,B1,True,False,True,False,False,True,True,True,True,True,True,True,No,2,No,No,No,No,2020_Jul_17_1608,nibs_stage_1,3.2.3,59.99267667521054,
2,0,2,0,9,0,9,0,,,,,,,,,,,,,,,,,,,,,,295.08211302757263,None,295.0657575845718,297.0658688545227,296.44878752231597,299.4489269256592,299.84894545078276,None,301.24911959171294,311.24958300590515,311.6496375322342,None,313.0497100353241,314.0497009754181,,,,,,,,,,,,,,,,,,,,,,,,,,,,,,,,,,,,,,,,,07,00,English,B1,True,False,True,False,False,True,True,True,True,True,True,True,No,2,No,No,No,No,2020_Jul_17_1608,nibs_stage_1,3.2.3,59.99267667521054,
2,0,2,0,10,0,10,0,,,,,,,,,,,,,,,,,,,,,,317.099809885025,None,317.0835164308548,319.0833179950714,318.4667156457901,None,321.8668435335159,322.8671178817749,323.2673965215683,333.26742601394653,333.6674104452133,None,335.0676760673523,336.0675709247589,,,,,,,,,,,,,,,,,,,,,,,,,,,,,,,,,,,,,,,,,07,00,English,B1,True,False,True,False,False,True,True,True,True,True,True,True,No,2,No,No,No,No,2020_Jul_17_1608,nibs_stage_1,3.2.3,59.99267667521054,
2,0,2,0,11,0,11,0,,,,,,,,,,,,,,,,,,,,,,339.1176669597626,None,339.1012995958328,341.10114097595215,340.48437960147857,None,343.88463456630706,None,345.2846425294876,355.2852189540863,355.68523461818694,None,357.0853228569031,358.0853340625763,,,,,,,,,,,,,,,,,,,,,,,,,,,,,,,,,,,,,,,,,07,00,English,B1,True,False,True,False,False,True,True,True,True,True,True,True,No,2,No,No,No,No,2020_Jul_17_1608,nibs_stage_1,3.2.3,59.99267667521054,
2,0,2,0,12,0,12,0,,,,,,,,,,,,,,,,,,,,,,361.1355369091034,None,361.1191974401474,363.1189329624176,362.5022354841232,365.50230598449707,365.9023504972458,None,367.3024886369705,377.3030469417572,377.7030654668808,None,379.10341691970825,380.1031639575958,,,,,,,,,,,,,,,,,,,,,,,,,,,,,,,,,,,,,,,,,07,00,English,B1,True,False,True,False,False,True,True,True,True,True,True,True,No,2,No,No,No,No,2020_Jul_17_1608,nibs_stage_1,3.2.3,59.99267667521054,
2,0,2,0,13,0,13,0,,,,,,,,,,,,,,,,,,,,,,383.15327405929565,None,383.1368976354599,385.15340304374695,384.51997859477996,None,387.9202304601669,None,389.3203864812851,399.320809841156,399.7208295583725,None,401.12081384658813,402.1209650039673,,,,,,,,,,,,,,,,,,,,,,,,,,,,,,,,,,,,,,,,,07,00,English,B1,True,False,True,False,False,True,True,True,True,True,True,True,No,2,No,No,No,No,2020_Jul_17_1608,nibs_stage_1,3.2.3,59.99267667521054,
2,0,2,0,14,0,14,0,,,,,,,,,,,,,,,,,,,,,,405.171875,None,405.15473849773406,407.15457105636597,406.53783757686614,None,409.93822343349456,None,411.3381174325943,421.338623046875,421.7387555360794,None,423.1387369632721,424.1387870311737,,,,,,,,,,,,,,,,,,,,,,,,,,,,,,,,,,,,,,,,,07,00,English,B1,True,False,True,False,False,True,True,True,True,True,True,True,No,2,No,No,No,No,2020_Jul_17_1608,nibs_stage_1,3.2.3,59.99267667521054,
2,0,2,0,,,,,0,0,0,0,0,0,0,0,,,,,,,,,,,,,,,,,,,,,,,,,,,,634.6163809299469,None," - Task: Keep seated and relaxed with either      
             opening or closing eyes                  
 - Beep sound with decreasing pitch: Block finish 
",634.6163809299469,None,634.6000110149384,None,"Please keep relaxed and close your eyes.
",657.6506359577179,837.6599729061127,841.0435569286346,None,855.0776929855347,None," - Task: Listen to the question& Speak out answer 
 - Melodious beep sound: Trial start              
 - Silent sound (blank): censored word            
 - Beep sound with increasing pitch: Rec. start   
 - Beep sound with decreasing pitch: Rec. finish  
",855.0776929855347,None,855.0612541675569,None,894.4795589447021,None,Listen to the question and speak out your answer!,897.5798058509827,None,897.5467622756959,899.5798490047455,Die Kinder haben ihrer Mutter im Haushalt geholfen.,geholfen,898.963134598732,901.846971988678,902.1966484308243,None,914.1639395475388,None,915.5806698799133,None,./data/Subject_07/Session_00/Exp_data/2020_Jul_17_1608/rec_QA_run_02_block_000_trial_000.wav,,,,07,00,English,B1,True,False,True,False,False,True,True,True,True,True,True,True,No,2,No,No,No,No,2020_Jul_17_1608,nibs_stage_1,3.2.3,59.99267667521054,
2,0,2,0,,,,,0,0,0,0,1,0,1,0,,,,,,,,,,,,,,,,,,,,,,,,,,,,,,,,,,,,,,,,,,,,,,,,,Listen to the question and speak out your answer!,918.6144878864288,None,918.5977418184281,920.6142539978027,"Da ich gestern Abend übergewichtig war, werde ich morgen eine neue Diät beginnen.",beginnen,919.9975705862046,924.7480890750885,925.1311774969101,None,935.1983686208725,936.2150690555573,936.6150789260864,None,./data/Subject_07/Session_00/Exp_data/2020_Jul_17_1608/rec_QA_run_02_block_000_trial_001.wav,,,,07,00,English,B1,True,False,True,False,False,True,True,True,True,True,True,True,No,2,No,No,No,No,2020_Jul_17_1608,nibs_stage_1,3.2.3,59.99267667521054,
2,0,2,0,,,,,0,0,0,0,2,0,2,0,,,,,,,,,,,,,,,,,,,,,,,,,,,,,,,,,,,,,,,,,,,,,,,,,Listen to the question and speak out your answer!,939.6487338542938,None,939.6321747064591,941.6486840248108,Er wurde zum Leiter der Abteilung befördert.,befördert,941.0319815397263,None,944.0654536008835,945.082181930542,956.2161546468735,None,957.6328358650208,None,./data/Subject_07/Session_00/Exp_data/2020_Jul_17_1608/rec_QA_run_02_block_000_trial_002.wav,,,,07,00,English,B1,True,False,True,False,False,True,True,True,True,True,True,True,No,2,No,No,No,No,2020_Jul_17_1608,nibs_stage_1,3.2.3,59.99267667521054,
2,0,2,0,,,,,0,0,0,0,3,0,3,0,,,,,,,,,,,,,,,,,,,,,,,,,,,,,,,,,,,,,,,,,,,,,,,,,Listen to the question and speak out your answer!,960.7000179290771,None,960.6832628011704,962.6997890472412,Wir sind verlobt und wollen nächstes Jahr heiraten.,heiraten,962.0830705881119,965.2334749698639,965.6166015386582,None,977.2838686227799,978.3005828857422,978.7005970478058,None,./data/Subject_07/Session_00/Exp_data/2020_Jul_17_1608/rec_QA_run_02_block_000_trial_003.wav,,,,07,00,English,B1,True,False,True,False,False,True,True,True,True,True,True,True,No,2,No,No,No,No,2020_Jul_17_1608,nibs_stage_1,3.2.3,59.99267667521054,
2,0,2,0,,,,,0,0,0,0,4,0,4,0,,,,,,,,,,,,,,,,,,,,,,,,,,,,,,,,,,,,,,,,,,,,,,,,,Listen to the question and speak out your answer!,981.7344379425049,None,981.7176787614823,983.7341918945312,Der Baum hängt voller Früchte.,hängt,983.1175025224686,None,985.4176204919816,None,998.3182824373246,999.3350150585175,999.7351720333099,None,./data/Subject_07/Session_00/Exp_data/2020_Jul_17_1608/rec_QA_run_02_block_000_trial_004.wav,,,,07,00,English,B1,True,False,True,False,False,True,True,True,True,True,True,True,No,2,No,No,No,No,2020_Jul_17_1608,nibs_stage_1,3.2.3,59.99267667521054,
2,0,2,0,,,,,0,0,0,0,5,0,5,0,,,,,,,,,,,,,,,,,,,,,,,,,,,,,,,,,,,,,,,,,,,,,,,,,Listen to the question and speak out your answer!,1002.8020749092102,None,1002.7855036020279,1004.8022408485413,Ich schnitt das Fleisch in Würfel.,schnitt,1004.1853185415268,1006.1020128726959,1006.4853595018387,None,1019.3860474348069,None,1020.8027989864349,None,./data/Subject_07/Session_00/Exp_data/2020_Jul_17_1608/rec_QA_run_02_block_000_trial_005.wav,,,,07,00,English,B1,True,False,True,False,False,True,True,True,True,True,True,True,No,2,No,No,No,No,2020_Jul_17_1608,nibs_stage_1,3.2.3,59.99267667521054,
2,0,2,0,,,,,0,0,0,0,6,0,6,0,,,,,,,,,,,,,,,,,,,,,,,,,,,,,,,,,,,,,,,,,,,,,,,,,Listen to the question and speak out your answer!,1023.8699510097504,None,1023.8532316446305,1025.8697180747986,Man bezahlt für den Naturschutz.,bezahlt,1025.2196865797043,1027.3031289577484,1027.6864896535874,1028.7031989097595,1040.4205375432969,1041.4371950626373,1041.837210893631,None,./data/Subject_07/Session_00/Exp_data/2020_Jul_17_1608/rec_QA_run_02_block_000_trial_006.wav,,,,07,00,English,B1,True,False,True,False,False,True,True,True,True,True,True,True,No,2,No,No,No,No,2020_Jul_17_1608,nibs_stage_1,3.2.3,59.99267667521054,
2,0,2,0,,,,,0,0,0,0,7,0,7,0,,,,,,,,,,,,,,,,,,,,,,,,,,,,,,,,,,,,,,,,,,,,,,,,,Listen to the question and speak out your answer!,1044.9040808677673,None,1044.8709992408753,1046.9041528701782,Ich kümmere mich nicht um die Reden der Leute.,kümmere,1046.287499499321,1048.8375539779663,1049.1875835180283,1050.2043058872223,1061.488241505623,1062.5048530101776,1062.9050068855286,None,./data/Subject_07/Session_00/Exp_data/2020_Jul_17_1608/rec_QA_run_02_block_000_trial_007.wav,,,,07,00,English,B1,True,False,True,False,False,True,True,True,True,True,True,True,No,2,No,No,No,No,2020_Jul_17_1608,nibs_stage_1,3.2.3,59.99267667521054,
2,0,2,0,,,,,0,0,0,0,8,0,8,0,,,,,,,,,,,,,,,,,,,,,,,,,,,,,,,,,,,,,,,,,,,,,,,,,Listen to the question and speak out your answer!,1065.9388709068298,None,1065.9221257925035,1067.9385509490967,Ich habe mich schon oft über den schrecklichen Service beschwert.,beschwert,1067.3218584775925,1070.672248840332,1071.02206261158,None,1082.5227554559708,None,1083.9060499668121,1084.939435005188,./data/Subject_07/Session_00/Exp_data/2020_Jul_17_1608/rec_QA_run_02_block_000_trial_008.wav,,,,07,00,English,B1,True,False,True,False,False,True,True,True,True,True,True,True,No,2,No,No,No,No,2020_Jul_17_1608,nibs_stage_1,3.2.3,59.99267667521054,
2,0,2,0,,,,,0,0,0,0,9,0,9,0,,,,,,,,,,,,,,,,,,,,,,,,,,,,,,,,,,,,,,,,,,,,,,,,,Listen to the question and speak out your answer!,1086.9729008674622,None,1086.9564545869828,1088.9729959964752,Die Touristen besichtigten alle Sehenswürdigkeiten der Stadt.,besichtigten,1088.3563116312027,None,1092.4898606061936,None,1103.5571754693985,1104.5738048553467,1104.97380900383,None,./data/Subject_07/Session_00/Exp_data/2020_Jul_17_1608/rec_QA_run_02_block_000_trial_009.wav,,,,07,00,English,B1,True,False,True,False,False,True,True,True,True,True,True,True,No,2,No,No,No,No,2020_Jul_17_1608,nibs_stage_1,3.2.3,59.99267667521054,
2,0,2,0,,,,,0,0,0,0,10,0,10,0,,,,,,,,,,,,,,,,,,,,,,,,,,,,,,,,,,,,,,,,,,,,,,,,,Listen to the question and speak out your answer!,1108.0240049362183,None,1108.0075451374055,1110.0240910053253,Im Herbst werden die Blätter von den Bäumen fallen.,fallen,1109.4073706388474,None,1112.6076265096665,None,1124.6082404375077,None,1126.0249888896942,None,./data/Subject_07/Session_00/Exp_data/2020_Jul_17_1608/rec_QA_run_02_block_000_trial_010.wav,,,,07,00,English,B1,True,False,True,False,False,True,True,True,True,True,True,True,No,2,No,No,No,No,2020_Jul_17_1608,nibs_stage_1,3.2.3,59.99267667521054,
2,0,2,0,,,,,0,0,0,0,11,0,11,0,,,,,,,,,,,,,,,,,,,,,,,,,,,,,,,,,,,,,,,,,,,,,,,,,Listen to the question and speak out your answer!,1129.0918838977814,None,1129.0753786325456,1131.0919098854065,Sie holte ihre Einkäufe aus dem Korb.,holte,1130.475139451027,1132.9921009540558,1133.3753724813462,None,1145.659256529808,None,1147.0760748386383,None,./data/Subject_07/Session_00/Exp_data/2020_Jul_17_1608/rec_QA_run_02_block_000_trial_011.wav,,,,07,00,English,B1,True,False,True,False,False,True,True,True,True,True,True,True,No,2,No,No,No,No,2020_Jul_17_1608,nibs_stage_1,3.2.3,59.99267667521054,
2,0,2,0,,,,,0,0,0,0,12,0,12,0,,,,,,,,,,,,,,,,,,,,,,,,,,,,,,,,,,,,,,,,,,,,,,,,,Listen to the question and speak out your answer!,1150.1435220241547,None,1150.109924221039,1152.1430099010468,Auf der Youtube kann man Videos anschauen.,anschauen,1151.5263014554978,1154.1097729206085,1154.4931314706803,None,1166.7269325971604,None,1168.1437449455261,None,./data/Subject_07/Session_00/Exp_data/2020_Jul_17_1608/rec_QA_run_02_block_000_trial_012.wav,,,,07,00,English,B1,True,False,True,False,False,True,True,True,True,True,True,True,No,2,No,No,No,No,2020_Jul_17_1608,nibs_stage_1,3.2.3,59.99267667521054,
2,0,2,0,,,,,0,0,0,0,13,0,13,0,,,,,,,,,,,,,,,,,,,,,,,,,,,,,,,,,,,,,,,,,,,,,,,,,Listen to the question and speak out your answer!,1171.1773309707642,None,1171.1441501617433,1173.177435874939,"Der Mann läuft zu schell, um die Post zu schicken.",schicken,1172.5606415987015,1175.4110329151154,1175.7941466093064,None,1187.7614384412766,None,1189.178277015686,None,./data/Subject_07/Session_00/Exp_data/2020_Jul_17_1608/rec_QA_run_02_block_000_trial_013.wav,,,,07,00,English,B1,True,False,True,False,False,True,True,True,True,True,True,True,No,2,No,No,No,No,2020_Jul_17_1608,nibs_stage_1,3.2.3,59.99267667521054,
2,0,2,0,,,,,0,0,0,0,14,0,14,0,,,,,,,,,,,,,,,,,,,,,,,,,,,,,,,,,,,,,,,,,,,,,,,,,Listen to the question and speak out your answer!,1192.2122049331665,None,1192.1785670757295,1194.2117738723755,"Ich darf Sie bitten, meinem Antrag zu entsprechen.",bitten,1193.5950904607773,None,1196.7952285528183,None,1208.7958706140519,None,1210.2125868797302,None,./data/Subject_07/Session_00/Exp_data/2020_Jul_17_1608/rec_QA_run_02_block_000_trial_014.wav,,,,07,00,English,B1,True,False,True,False,False,True,True,True,True,True,True,True,No,2,No,No,No,No,2020_Jul_17_1608,nibs_stage_1,3.2.3,59.99267667521054,
2,0,2,0,,,,,0,0,0,0,15,0,15,0,,,,,,,,,,,,,,,,,,,,,,,,,,,,,,,,,,,,,,,,,,,,,,,,,Listen to the question and speak out your answer!,1213.2464320659637,None,1213.2296716928483,1215.2461829185486,Die Uhr kann den zwölf Stunden Rhythmus zeigen.,zeigen,1214.5962324857712,1217.3129580020905,1217.7296465158463,1218.7463629245758,1229.7968574285508,None,1231.213679075241,None,./data/Subject_07/Session_00/Exp_data/2020_Jul_17_1608/rec_QA_run_02_block_000_trial_015.wav,,,,07,00,English,B1,True,False,True,False,False,True,True,True,True,True,True,True,No,2,No,No,No,No,2020_Jul_17_1608,nibs_stage_1,3.2.3,59.99267667521054,
2,0,2,0,,,,,0,0,0,0,16,0,16,0,,,,,,,,,,,,,,,,,,,,,,,,,,,,,,,,,,,,,,,,,,,,,,,,,Listen to the question and speak out your answer!,1234.280634880066,None,1234.2474190235139,1236.2806069850922,"Bevor man ein Haus baut, zeichnet der Architekt einen Plan.",zeichnet,1235.6640115499497,1239.280865907669,1239.6641464948655,None,1250.86470348835,None,1252.281429052353,None,./data/Subject_07/Session_00/Exp_data/2020_Jul_17_1608/rec_QA_run_02_block_000_trial_016.wav,,,,07,00,English,B1,True,False,True,False,False,True,True,True,True,True,True,True,No,2,No,No,No,No,2020_Jul_17_1608,nibs_stage_1,3.2.3,59.99267667521054,
2,0,2,0,,,,,0,0,0,0,17,0,17,0,,,,,,,,,,,,,,,,,,,,,,,,,,,,,,,,,,,,,,,,,,,,,,,,,Listen to the question and speak out your answer!,1255.3166930675507,None,1255.298448777199,1257.3150339126587,In Wien tanzt man gerne Walzer.,tanzt,1256.6650574922562,None,1259.165121626854,None,1271.8657816171647,None,1273.2825050354004,None,./data/Subject_07/Session_00/Exp_data/2020_Jul_17_1608/rec_QA_run_02_block_000_trial_017.wav,,,,07,00,English,B1,True,False,True,False,False,True,True,True,True,True,True,True,No,2,No,No,No,No,2020_Jul_17_1608,nibs_stage_1,3.2.3,59.99267667521054,
2,0,2,0,,,,,0,0,0,0,18,0,18,0,,,,,,,,,,,,,,,,,,,,,,,,,,,,,,,,,,,,,,,,,,,,,,,,,Listen to the question and speak out your answer!,1276.350240945816,None,1276.3330976724626,1278.3495509624481,"Ich hoffe, dass alles gut geht. ",hoffe,1277.732799601555,1279.5828318595886,1279.9661856412888,None,1292.9335904836655,None,1294.350270986557,None,./data/Subject_07/Session_00/Exp_data/2020_Jul_17_1608/rec_QA_run_02_block_000_trial_018.wav,,,,07,00,English,B1,True,False,True,False,False,True,True,True,True,True,True,True,No,2,No,No,No,No,2020_Jul_17_1608,nibs_stage_1,3.2.3,59.99267667521054,
2,0,2,0,,,,,0,0,0,0,19,0,19,0,,,,,,,,,,,,,,,,,,,,,,,,,,,,,,,,,,,,,,,,,,,,,,,,,Listen to the question and speak out your answer!,1297.4177498817444,None,1297.383996152878,1299.4172048568726,Entweder hat mir jemand die Geldtasche gestohlen oder ich habe sie verloren.,verloren,1298.8004885435105,1303.1507289409637,1303.5342756032944,None,1314.0012934923172,None,1315.4180400371552,None,./data/Subject_07/Session_00/Exp_data/2020_Jul_17_1608/rec_QA_run_02_block_000_trial_019.wav,,,,07,00,English,B1,True,False,True,False,False,True,True,True,True,True,True,True,No,2,No,No,No,No,2020_Jul_17_1608,nibs_stage_1,3.2.3,59.99267667521054,
2,0,2,0,,,,,0,0,0,0,20,0,20,0,,,,,,,,,,,,,,,,,,,,,,,,,,,,,,,,,,,,,,,,,,,,,,,,,Listen to the question and speak out your answer!,1318.4519250392914,None,1318.435152745247,1320.451635837555,Arbeitslos-sein bedeutet: man hat keinen Arbeits-Platz.,bedeutet,1319.83501060009,None,1323.6351345300675,1324.6519029140472,1335.0357325792313,None,1336.452386856079,None,./data/Subject_07/Session_00/Exp_data/2020_Jul_17_1608/rec_QA_run_02_block_000_trial_020.wav,,,,07,00,English,B1,True,False,True,False,False,True,True,True,True,True,True,True,No,2,No,No,No,No,2020_Jul_17_1608,nibs_stage_1,3.2.3,59.99267667521054,
2,0,2,0,,,,,0,0,0,0,21,0,21,0,,,,,,,,,,,,,,,,,,,,,,,,,,,,,,,,,,,,,,,,,,,,,,,,,Listen to the question and speak out your answer!,1339.486319065094,None,1339.4695217370988,1341.4860589504242,"Bitte reservieren Sie einen Platz, bevor Sie ins Restaurant gehen.",reservieren,1340.8693435907364,1344.9195349216461,1345.2695766210556,1346.2862980365753,1356.0368405103684,1357.0535378456116,1357.4535629749298,None,./data/Subject_07/Session_00/Exp_data/2020_Jul_17_1608/rec_QA_run_02_block_000_trial_021.wav,,,,07,00,English,B1,True,False,True,False,False,True,True,True,True,True,True,True,No,2,No,No,No,No,2020_Jul_17_1608,nibs_stage_1,3.2.3,59.99267667521054,
2,0,2,0,,,,,0,0,0,0,22,0,22,0,,,,,,,,,,,,,,,,,,,,,,,,,,,,,,,,,,,,,,,,,,,,,,,,,Listen to the question and speak out your answer!,1360.5209999084473,None,1360.503951764107,1362.5204589366913,"Wenn der Wind stark bläst, ziehen die Wolken schnell über den Himmel.",bläst,1361.9037626504899,1365.4206109046936,1365.8039756536484,None,1377.1046446084977,1378.1212768554688,1378.5213849544525,None,./data/Subject_07/Session_00/Exp_data/2020_Jul_17_1608/rec_QA_run_02_block_000_trial_022.wav,,,,07,00,English,B1,True,False,True,False,False,True,True,True,True,True,True,True,No,2,No,No,No,No,2020_Jul_17_1608,nibs_stage_1,3.2.3,59.99267667521054,
2,0,2,0,,,,,0,0,0,0,23,0,23,0,,,,,,,,,,,,,,,,,,,,,,,,,,,,,,,,,,,,,,,,,,,,,,,,,Listen to the question and speak out your answer!,1381.6054470539093,None,1381.571702694893,1383.6050019264221,Ein gutes Gehalt heißt oft harte Arbeit.,heißt,1382.9882064580918,1385.7383308410645,1386.1216965436936,None,1398.1890764951706,1399.2057659626007,1399.6057200431824,None,./data/Subject_07/Session_00/Exp_data/2020_Jul_17_1608/rec_QA_run_02_block_000_trial_023.wav,,,,07,00,English,B1,True,False,True,False,False,True,True,True,True,True,True,True,No,2,No,No,No,No,2020_Jul_17_1608,nibs_stage_1,3.2.3,59.99267667521054,
2,0,2,0,,,,,0,0,0,0,24,0,24,0,,,,,,,,,,,,,,,,,,,,,,,,,,,,,,,,,,,,,,,,,,,,,,,,,Listen to the question and speak out your answer!,1402.6407480239868,None,1402.6227426290513,1404.6394209861755,"Ich heiße Tibor, wie ist dein Name?",heiße,1403.9892855405808,1406.4061620235443,1406.7894404649735,None,1419.1899965524674,None,1420.6068179607391,None,./data/Subject_07/Session_00/Exp_data/2020_Jul_17_1608/rec_QA_run_02_block_000_trial_024.wav,,,,07,00,English,B1,True,False,True,False,False,True,True,True,True,True,True,True,No,2,No,No,No,No,2020_Jul_17_1608,nibs_stage_1,3.2.3,59.99267667521054,
2,0,2,0,,,,,0,0,0,0,,,,,,,,,,,,,,,,,,,,,,,,,,,,,,,,,,,,,,,,,,1424.6571910381317,None,,,,,,,,,,,,,,,,,,,,,,,,,,,,,07,00,English,B1,True,False,True,False,False,True,True,True,True,True,True,True,No,2,No,No,No,No,2020_Jul_17_1608,nibs_stage_1,3.2.3,59.99267667521054,
2,0,2,0,,,,,1,0,1,0,0,0,0,0,,,,,,,,,,,,,,,,,,,,,,,,,,,,,,,,,,,,,,,,,,,,,,,,,Listen to the question and speak out your answer!,1438.7581288814545,None,1438.7414653778076,1440.7578279972076,Ich habe meine Lederschuhe mit einem Lappen geputzt.,geputzt,1440.1411555528641,1443.091276884079,1443.4749346494675,None,1455.3419476270676,None,1456.7586719989777,None,./data/Subject_07/Session_00/Exp_data/2020_Jul_17_1608/rec_QA_run_02_block_001_trial_000.wav,,,,07,00,English,B1,True,False,True,False,False,True,True,True,True,True,True,True,No,2,No,No,No,No,2020_Jul_17_1608,nibs_stage_1,3.2.3,59.99267667521054,
2,0,2,0,,,,,1,0,1,0,1,0,1,0,,,,,,,,,,,,,,,,,,,,,,,,,,,,,,,,,,,,,,,,,,,,,,,,,Listen to the question and speak out your answer!,1459.7939689159393,None,1459.7756867170335,1461.7922730445862,"In den Zeitungen , im Radio und im Fernsehen wird regelmäßig über Sport berichtet.",berichtet,1461.1762464761734,None,1466.77583963871,None,1476.3763266324997,1477.3930819034576,1477.7931878566742,None,./data/Subject_07/Session_00/Exp_data/2020_Jul_17_1608/rec_QA_run_02_block_001_trial_001.wav,,,,07,00,English,B1,True,False,True,False,False,True,True,True,True,True,True,True,No,2,No,No,No,No,2020_Jul_17_1608,nibs_stage_1,3.2.3,59.99267667521054,
2,0,2,0,,,,,1,0,1,0,2,0,2,0,,,,,,,,,,,,,,,,,,,,,,,,,,,,,,,,,,,,,,,,,,,,,,,,,Listen to the question and speak out your answer!,1480.8439309597015,None,1480.8102347612382,1482.8433549404144,"Ich sollte aufstehen, wenn morgens der Wecker geläutet.",geläutet,1482.2266486406327,1485.5104520320892,1485.8601904630661,None,1497.4273865938187,None,1498.844202041626,None,./data/Subject_07/Session_00/Exp_data/2020_Jul_17_1608/rec_QA_run_02_block_001_trial_002.wav,,,,07,00,English,B1,True,False,True,False,False,True,True,True,True,True,True,True,No,2,No,No,No,No,2020_Jul_17_1608,nibs_stage_1,3.2.3,59.99267667521054,
2,0,2,0,,,,,1,0,1,0,3,0,3,0,,,,,,,,,,,,,,,,,,,,,,,,,,,,,,,,,,,,,,,,,,,,,,,,,Listen to the question and speak out your answer!,1501.8777630329132,None,1501.8446260929109,1503.8777668476105,"Sie scheinen nicht zu wissen, mit wem Sie es zu tun haben.",scheinen,1503.2610896348954,1506.7112519741058,1507.0946174383164,None,1518.461847615242,None,1519.8785898685455,None,./data/Subject_07/Session_00/Exp_data/2020_Jul_17_1608/rec_QA_run_02_block_001_trial_003.wav,,,,07,00,English,B1,True,False,True,False,False,True,True,True,True,True,True,True,No,2,No,No,No,No,2020_Jul_17_1608,nibs_stage_1,3.2.3,59.99267667521054,
2,0,2,0,,,,,1,0,1,0,4,0,4,0,,,,,,,,,,,,,,,,,,,,,,,,,,,,,,,,,,,,,,,,,,,,,,,,,Listen to the question and speak out your answer!,1522.9124970436096,None,1522.8956687211992,1524.91224193573,Die alte Zimmerdecke muss man renovieren.,renovieren,1524.295495581627,1526.779196023941,1527.1623194932938,None,1539.4796596288681,1540.4963319301605,1540.8963809013367,None,./data/Subject_07/Session_00/Exp_data/2020_Jul_17_1608/rec_QA_run_02_block_001_trial_004.wav,,,,07,00,English,B1,True,False,True,False,False,True,True,True,True,True,True,True,No,2,No,No,No,No,2020_Jul_17_1608,nibs_stage_1,3.2.3,59.99267667521054,
2,0,2,0,,,,,1,0,1,0,5,0,5,0,,,,,,,,,,,,,,,,,,,,,,,,,,,,,,,,,,,,,,,,,,,,,,,,,Listen to the question and speak out your answer!,1543.9639658927917,None,1543.9468075990678,1545.9633438587189,"Das gute Wetter wird halten, weil ich keine Wolken sehe.",halten,1545.3132415533066,1548.6634089946747,1549.0801044225693,None,1560.5140815496445,None,1561.9307980537415,None,./data/Subject_07/Session_00/Exp_data/2020_Jul_17_1608/rec_QA_run_02_block_001_trial_005.wav,,,,07,00,English,B1,True,False,True,False,False,True,True,True,True,True,True,True,No,2,No,No,No,No,2020_Jul_17_1608,nibs_stage_1,3.2.3,59.99267667521054,
2,0,2,0,,,,,1,0,1,0,6,0,6,0,,,,,,,,,,,,,,,,,,,,,,,,,,,,,,,,,,,,,,,,,,,,,,,,,Listen to the question and speak out your answer!,1565.0149519443512,None,1564.9811796903612,1567.014361858368,"Wenn eine Erkältung hat, kann mann niesen oder husten.",husten,1566.3643515825272,1569.6478278636932,1570.0646405935288,1571.0812690258026,1581.565693449974,1582.581848859787,1582.9818680286407,None,./data/Subject_07/Session_00/Exp_data/2020_Jul_17_1608/rec_QA_run_02_block_001_trial_006.wav,,,,07,00,English,B1,True,False,True,False,False,True,True,True,True,True,True,True,No,2,No,No,No,No,2020_Jul_17_1608,nibs_stage_1,3.2.3,59.99267667521054,
2,0,2,0,,,,,1,0,1,0,7,0,7,0,,,,,,,,,,,,,,,,,,,,,,,,,,,,,,,,,,,,,,,,,,,,,,,,,Listen to the question and speak out your answer!,1586.049614906311,None,1586.0322797060014,1588.0488018989563,"Das Flugzeug steht kurz vor dem Abflug, wir müssen uns beeilen.",beeilen,1587.4320915460587,None,1591.732326579094,None,1602.632929635048,None,1604.049716949463,None,./data/Subject_07/Session_00/Exp_data/2020_Jul_17_1608/rec_QA_run_02_block_001_trial_007.wav,,,,07,00,English,B1,True,False,True,False,False,True,True,True,True,True,True,True,No,2,No,No,No,No,2020_Jul_17_1608,nibs_stage_1,3.2.3,59.99267667521054,
2,0,2,0,,,,,1,0,1,0,8,0,8,0,,,,,,,,,,,,,,,,,,,,,,,,,,,,,,,,,,,,,,,,,,,,,,,,,Listen to the question and speak out your answer!,1607.0848519802094,None,1607.0500000953675,1609.083200931549,In diesem Krankenhaus werden viele Patienten behandelt.,behandelt,1608.4666095495224,None,1612.3333686113358,None,1623.6672986268998,None,1625.0840508937836,None,./data/Subject_07/Session_00/Exp_data/2020_Jul_17_1608/rec_QA_run_02_block_001_trial_008.wav,,,,07,00,English,B1,True,False,True,False,False,True,True,True,True,True,True,True,No,2,No,No,No,No,2020_Jul_17_1608,nibs_stage_1,3.2.3,59.99267667521054,
2,0,2,0,,,,,1,0,1,0,9,0,9,0,,,,,,,,,,,,,,,,,,,,,,,,,,,,,,,,,,,,,,,,,,,,,,,,,Listen to the question and speak out your answer!,1628.1184208393097,None,1628.101107811928,1630.117681980133,Er antwortete schnell auf meine Frage.,antwortete,1629.5009785413743,None,1632.3344834566117,None,1644.7017114877701,None,1646.1186108589172,None,./data/Subject_07/Session_00/Exp_data/2020_Jul_17_1608/rec_QA_run_02_block_001_trial_009.wav,,,,07,00,English,B1,True,False,True,False,False,True,True,True,True,True,True,True,No,2,No,No,No,No,2020_Jul_17_1608,nibs_stage_1,3.2.3,59.99267667521054,
2,0,2,0,,,,,1,0,1,0,10,0,10,0,,,,,,,,,,,,,,,,,,,,,,,,,,,,,,,,,,,,,,,,,,,,,,,,,Listen to the question and speak out your answer!,1649.1858830451965,None,1649.1521851062776,1651.1853940486908,"Um den Bus noch zu erwischen, musste ich heute Morgen sehr schnell laufen.",laufen,1650.5352736234665,1654.618912935257,1655.002251458168,None,1665.7361684560776,None,1667.152909040451,None,./data/Subject_07/Session_00/Exp_data/2020_Jul_17_1608/rec_QA_run_02_block_001_trial_010.wav,,,,07,00,English,B1,True,False,True,False,False,True,True,True,True,True,True,True,No,2,No,No,No,No,2020_Jul_17_1608,nibs_stage_1,3.2.3,59.99267667521054,
2,0,2,0,,,,,1,0,1,0,11,0,11,0,,,,,,,,,,,,,,,,,,,,,,,,,,,,,,,,,,,,,,,,,,,,,,,,,Listen to the question and speak out your answer!,1670.221832036972,None,1670.2034806966783,1672.2199099063873,"Ich kann prüfen, ob wir diese Hose auf Lager haben.",prüfen,1671.6031015634537,1674.819932937622,1675.2033036470414,None,1686.8038895845414,None,1688.2206089496613,None,./data/Subject_07/Session_00/Exp_data/2020_Jul_17_1608/rec_QA_run_02_block_001_trial_011.wav,,,,07,00,English,B1,True,False,True,False,False,True,True,True,True,True,True,True,No,2,No,No,No,No,2020_Jul_17_1608,nibs_stage_1,3.2.3,59.99267667521054,
2,0,2,0,,,,,1,0,1,0,12,0,12,0,,,,,,,,,,,,,,,,,,,,,,,,,,,,,,,,,,,,,,,,,,,,,,,,,Listen to the question and speak out your answer!,1691.2894878387451,None,1691.2711806058885,1693.2876739501953,"Bitten aufpassen, zu viel Zucker schadet der Gesundheit.",aufpassen,1692.6708744287491,1696.054368019104,1696.4377556562424,1697.4545838832855,1707.8550666093827,1708.8717539310455,1709.2717468738556,None,./data/Subject_07/Session_00/Exp_data/2020_Jul_17_1608/rec_QA_run_02_block_001_trial_012.wav,,,,07,00,English,B1,True,False,True,False,False,True,True,True,True,True,True,True,No,2,No,No,No,No,2020_Jul_17_1608,nibs_stage_1,3.2.3,59.99267667521054,
2,0,2,0,,,,,1,0,1,0,13,0,13,0,,,,,,,,,,,,,,,,,,,,,,,,,,,,,,,,,,,,,,,,,,,,,,,,,Listen to the question and speak out your answer!,1712.3386318683624,None,1712.3054791927339,1714.338660955429,Das neue Teammitglied wurde über die Situation informiert.,informiert,1713.6886285066605,1717.372134923935,1717.7888396501542,None,1728.8893924474717,None,1730.3061618804932,None,./data/Subject_07/Session_00/Exp_data/2020_Jul_17_1608/rec_QA_run_02_block_001_trial_013.wav,,,,07,00,English,B1,True,False,True,False,False,True,True,True,True,True,True,True,No,2,No,No,No,No,2020_Jul_17_1608,nibs_stage_1,3.2.3,59.99267667521054,
2,0,2,0,,,,,1,0,1,0,14,0,14,0,,,,,,,,,,,,,,,,,,,,,,,,,,,,,,,,,,,,,,,,,,,,,,,,,Listen to the question and speak out your answer!,1733.3746168613434,None,1733.356465792656,1735.3730669021606,Der ganze Kursus besichtigte die Ausstellung.,besichtigte,1734.723047566414,None,1737.9897936105729,1739.0066030025482,1749.9238765954972,1750.9404819011688,1751.3405890464783,None,./data/Subject_07/Session_00/Exp_data/2020_Jul_17_1608/rec_QA_run_02_block_001_trial_014.wav,,,,07,00,English,B1,True,False,True,False,False,True,True,True,True,True,True,True,No,2,No,No,No,No,2020_Jul_17_1608,nibs_stage_1,3.2.3,59.99267667521054,
2,0,2,0,,,,,1,0,1,0,15,0,15,0,,,,,,,,,,,,,,,,,,,,,,,,,,,,,,,,,,,,,,,,,,,,,,,,,Listen to the question and speak out your answer!,1754.4091620445251,None,1754.3909806966783,1756.4074058532715,Der Lehrer unterrichtet Schüler und bringt ihnen verschiedene Dinge bei.,unterrichtet,1755.7907875299454,1759.8409850597382,1760.2244635343552,None,1770.9917605638504,None,1772.408437013626,None,./data/Subject_07/Session_00/Exp_data/2020_Jul_17_1608/rec_QA_run_02_block_001_trial_015.wav,,,,07,00,English,B1,True,False,True,False,False,True,True,True,True,True,True,True,No,2,No,No,No,No,2020_Jul_17_1608,nibs_stage_1,3.2.3,59.99267667521054,
2,0,2,0,,,,,1,0,1,0,16,0,16,0,,,,,,,,,,,,,,,,,,,,,,,,,,,,,,,,,,,,,,,,,,,,,,,,,Listen to the question and speak out your answer!,1775.4424738883972,None,1775.408725166321,1777.441890001297,"Wenn ich einmal angefangen habe, kann mich nichts mehr aufhalten.",aufhalten,1776.8252065896988,None,1780.958675456047,None,1792.0259905576706,None,1793.4429168701172,None,./data/Subject_07/Session_00/Exp_data/2020_Jul_17_1608/rec_QA_run_02_block_001_trial_016.wav,,,,07,00,English,B1,True,False,True,False,False,True,True,True,True,True,True,True,No,2,No,No,No,No,2020_Jul_17_1608,nibs_stage_1,3.2.3,59.99267667521054,
2,0,2,0,,,,,1,0,1,0,17,0,17,0,,,,,,,,,,,,,,,,,,,,,,,,,,,,,,,,,,,,,,,,,,,,,,,,,Listen to the question and speak out your answer!,1796.4930789470673,None,1796.4598808050157,1798.4929928779602,Das Programm kannst Du kostenlos herunterladen.,herunterladen,1797.8429575681687,1800.7598040103912,1801.1431284666062,None,1813.0437756299973,None,1814.4604818820953,None,./data/Subject_07/Session_00/Exp_data/2020_Jul_17_1608/rec_QA_run_02_block_001_trial_017.wav,,,,07,00,English,B1,True,False,True,False,False,True,True,True,True,True,True,True,No,2,No,No,No,No,2020_Jul_17_1608,nibs_stage_1,3.2.3,59.99267667521054,
2,0,2,0,,,,,1,0,1,0,18,0,18,0,,,,,,,,,,,,,,,,,,,,,,,,,,,,,,,,,,,,,,,,,,,,,,,,,Listen to the question and speak out your answer!,1817.5274040699005,None,1817.4942511558534,1819.5274078845978,Willi möchte gerne an der Universität Informatik studieren.,studieren,1818.910731625557,None,1823.144300532341,1824.1610279083252,1834.111498427391,None,1835.528286933899,None,./data/Subject_07/Session_00/Exp_data/2020_Jul_17_1608/rec_QA_run_02_block_001_trial_018.wav,,,,07,00,English,B1,True,False,True,False,False,True,True,True,True,True,True,True,No,2,No,No,No,No,2020_Jul_17_1608,nibs_stage_1,3.2.3,59.99267667521054,
2,0,2,0,,,,,1,0,1,0,19,0,19,0,,,,,,,,,,,,,,,,,,,,,,,,,,,,,,,,,,,,,,,,,,,,,,,,,Listen to the question and speak out your answer!,1838.578481912613,None,1838.5453307390214,1840.578500032425,Wir haben die Buchung per E-Mail bestätigt.,bestätigt,1839.961808514595,None,1842.8952875852585,None,1855.1292474985123,1856.1459720134735,1856.5460078716278,None,./data/Subject_07/Session_00/Exp_data/2020_Jul_17_1608/rec_QA_run_02_block_001_trial_019.wav,,,,07,00,English,B1,True,False,True,False,False,True,True,True,True,True,True,True,No,2,No,No,No,No,2020_Jul_17_1608,nibs_stage_1,3.2.3,59.99267667521054,
2,0,2,0,,,,,1,0,1,0,20,0,20,0,,,,,,,,,,,,,,,,,,,,,,,,,,,,,,,,,,,,,,,,,,,,,,,,,Listen to the question and speak out your answer!,1859.6136620044708,None,1859.5964236021043,1861.612900018692,An Regentagen benutzen die Leute einen Regenschirm.,benutzen,1860.9962156534195,None,1864.6964064359665,None,1876.1803556203843,None,1877.5970740318298,None,./data/Subject_07/Session_00/Exp_data/2020_Jul_17_1608/rec_QA_run_02_block_001_trial_020.wav,,,,07,00,English,B1,True,False,True,False,False,True,True,True,True,True,True,True,No,2,No,No,No,No,2020_Jul_17_1608,nibs_stage_1,3.2.3,59.99267667521054,
2,0,2,0,,,,,1,0,1,0,21,0,21,0,,,,,,,,,,,,,,,,,,,,,,,,,,,,,,,,,,,,,,,,,,,,,,,,,Listen to the question and speak out your answer!,1880.664551973343,None,1880.6308311462403,1882.6640388965607,Bitte bilden Sie einfache Sätze.,bilden,1882.0473094701767,None,1884.5474365472794,None,1897.2147765874863,1898.2314848899841,1898.6315128803253,None,./data/Subject_07/Session_00/Exp_data/2020_Jul_17_1608/rec_QA_run_02_block_001_trial_021.wav,,,,07,00,English,B1,True,False,True,False,False,True,True,True,True,True,True,True,No,2,No,No,No,No,2020_Jul_17_1608,nibs_stage_1,3.2.3,59.99267667521054,
2,0,2,0,,,,,1,0,1,0,22,0,22,0,,,,,,,,,,,,,,,,,,,,,,,,,,,,,,,,,,,,,,,,,,,,,,,,,Listen to the question and speak out your answer!,1901.7001008987427,None,1901.6818096399309,1903.6984269618988,Menschen und Firmen können ein Konto bei der Bank eröffnen.,eröffnen,1903.0818365335465,None,1906.8152504682541,None,1918.282589507103,1919.2992188930511,1919.6993680000305,None,./data/Subject_07/Session_00/Exp_data/2020_Jul_17_1608/rec_QA_run_02_block_001_trial_022.wav,,,,07,00,English,B1,True,False,True,False,False,True,True,True,True,True,True,True,No,2,No,No,No,No,2020_Jul_17_1608,nibs_stage_1,3.2.3,59.99267667521054,
2,0,2,0,,,,,1,0,1,0,23,0,23,0,,,,,,,,,,,,,,,,,,,,,,,,,,,,,,,,,,,,,,,,,,,,,,,,,Listen to the question and speak out your answer!,1922.766382932663,None,1922.7331801891328,1924.7662799358368,"Der Arzt wollte ihm verwehren, seinen Vater zu besuchen.",besuchen,1924.1494844675065,1927.6996698379517,1928.0830295801163,1929.0997428894043,1939.350272488594,1940.3669798374176,1940.7670209407806,None,./data/Subject_07/Session_00/Exp_data/2020_Jul_17_1608/rec_QA_run_02_block_001_trial_023.wav,,,,07,00,English,B1,True,False,True,False,False,True,True,True,True,True,True,True,No,2,No,No,No,No,2020_Jul_17_1608,nibs_stage_1,3.2.3,59.99267667521054,
2,0,2,0,,,,,1,0,1,0,24,0,24,0,,,,,,,,,,,,,,,,,,,,,,,,,,,,,,,,,,,,,,,,,,,,,,,,,Listen to the question and speak out your answer!,1943.8013730049133,None,1943.784089779854,1945.8006038665771,"Im Sommer brauchen wir ein Moskitonetz, damit wir nicht gestochen werden.",brauchen,1945.184087586403,None,1949.817483496666,None,1960.3847006082535,None,1961.801540851593,None,./data/Subject_07/Session_00/Exp_data/2020_Jul_17_1608/rec_QA_run_02_block_001_trial_024.wav,,,,07,00,English,B1,True,False,True,False,False,True,True,True,True,True,True,True,No,2,No,No,No,No,2020_Jul_17_1608,nibs_stage_1,3.2.3,59.99267667521054,
2,0,2,0,,,,,1,0,1,0,,,,,,,,,,,,,,,,,,,,,,,,,,,,,,,,,,,,,,,,,,1965.8515539169312,None,,,,,,,,,,,,,,,,,,,,,,,,,,,,,07,00,English,B1,True,False,True,False,False,True,True,True,True,True,True,True,No,2,No,No,No,No,2020_Jul_17_1608,nibs_stage_1,3.2.3,59.99267667521054,
2,0,2,0,,,,,,,,,,,,,,,,,,,,,,,,,,,,,,,,,,,,,,,,,,,,,,,,,,,,,,,,,,,,,,,,,,,,,,,,,,,,,Please remain seated until further instruction via the earphone.,66.52023386955261,None,07,00,English,B1,True,False,True,False,False,True,True,True,True,True,True,True,No,2,No,No,No,No,2020_Jul_17_1608,nibs_stage_1,3.2.3,59.99267667521054,
