run.thisRepN,run.thisTrialN,run.thisN,run.thisIndex,QA_block.thisRepN,QA_block.thisTrialN,QA_block.thisN,QA_block.thisIndex,QA_trial.thisRepN,QA_trial.thisTrialN,QA_trial.thisN,QA_trial.thisIndex,fade_in_text.text,fade_in_text.started,fade_in_text.stopped,RS_intro_title.started,RS_intro_title.stopped,RS_intro_text.text,RS_intro_text.started,RS_intro_text.stopped,RS_intro_audio.started,RS_intro_audio.stopped,RS_rec_text.text,RS_rec_text.started,RS_rec_text.stopped,Pause_cont.started,Pause_cont.stopped,QA_intro_title.started,QA_intro_title.stopped,QA_intro_text.text,QA_intro_text.started,QA_intro_text.stopped,QA_intro_audio.started,QA_intro_audio.stopped,QA_intro_cont.started,QA_intro_cont.stopped,QA_rec_text.text,QA_rec_text.started,QA_rec_text.stopped,QA_rec_beep_hint.started,QA_rec_beep_hint.stopped,QA_rec_question.sen_text,QA_rec_question.cen_text,QA_rec_question.started,QA_rec_question.stopped,QA_rec_beep_start.started,QA_rec_beep_start.stopped,QA_rec_beep_end.started,QA_rec_beep_end.stopped,QA_rec_break.started,QA_rec_break.stopped,filename,participant,session,First language,German level,Full_screen,Instruction,Intro,Artifact,Cali_pre,Fade_in_out,Artifact_within,Resting_State,QA,Pause,Cali_post,End,Breakpoint_Cali_pre_trial,Breakpoint_Run,Breakpoint_RS_block,Breakpoint_QA_block,Breakpoint_QA_trial,Breakpoint_Cali_post_trial,date,expName,psychopyVersion,frameRate,
1,0,1,0,0,0,0,0,0,0,0,0,Please remain seated until further instruction via the earphone.,87.02191400527954,None,297.4660339355469,None," - Task: Keep seated and relaxed with either      
             opening or closing eyes                  
 - Beep sound with decreasing pitch: Block finish 
",297.4660339355469,None,297.46606221199033,None,"Please keep relaxed and open your eyes.
Note: Blinking is allowed.",320.48434805870056,500.4932510852814,503.87677097320557,None,517.8943300247192,557.8964819908142," - Task: Listen to the question& Speak out answer 
 - Melodious beep sound: Trial start              
 - Silent sound (blank): censored word            
 - Beep sound with increasing pitch: Rec. start   
 - Beep sound with decreasing pitch: Rec. finish  
",517.8943300247192,557.8964819908142,517.8771004199982,None,557.263386964798,None,Listen to the question and speak out your answer!,562.2966859340668,None,562.2803408145905,564.2801110744476,Diese Grafik hat die Ergebnisse deutlich dargestellt.,dargestellt,563.6801123142243,566.8804130554199,567.280272436142,None,578.8808984279633,579.8809580802917,580.2809300422668,581.2810909748077,./data/Subject_07/Session_00/Exp_data/2020_Jul_17_1530/rec_QA_run_01_block_000_trial_000.wav,07,00,English,B1,True,False,True,False,False,True,True,True,True,True,True,True,No,1,No,No,No,No,2020_Jul_17_1530,nibs_stage_1,3.2.3,59.93087159233958,
1,0,1,0,0,0,0,0,1,0,1,0,,,,,,,,,,,,,,,,,,,,,,,,,Listen to the question and speak out your answer!,583.3144640922546,None,583.2976057052613,585.2980370521545,Vor dem Supermarkt kann man auf einer großen Fläche parken. ,parken,584.6811923503876,588.1480150222778,588.5647453784943,None,599.8819543838501,None,601.2820320129395,602.2820138931274,./data/Subject_07/Session_00/Exp_data/2020_Jul_17_1530/rec_QA_run_01_block_000_trial_001.wav,07,00,English,B1,True,False,True,False,False,True,True,True,True,True,True,True,No,1,No,No,No,No,2020_Jul_17_1530,nibs_stage_1,3.2.3,59.93087159233958,
1,0,1,0,0,0,0,0,2,0,2,0,,,,,,,,,,,,,,,,,,,,,,,,,Listen to the question and speak out your answer!,604.3493258953094,None,604.3320120811463,606.3323109149933,An der Kasse bezahlen wir mit Bankomatkarte.,bezahlen,605.7155913829804,None,609.1657673835755,610.1658279895782,620.9163984775544,None,622.316358089447,623.3164749145508,./data/Subject_07/Session_00/Exp_data/2020_Jul_17_1530/rec_QA_run_01_block_000_trial_002.wav,07,00,English,B1,True,False,True,False,False,True,True,True,True,True,True,True,No,1,No,No,No,No,2020_Jul_17_1530,nibs_stage_1,3.2.3,59.93087159233958,
1,0,1,0,0,0,0,0,3,0,3,0,,,,,,,,,,,,,,,,,,,,,,,,,Listen to the question and speak out your answer!,625.3832828998566,None,625.3663541316987,627.3667500019073,"Das Buch war witzig, ich habe stundenlang gelacht.",gelacht,626.7499475002289,629.7503218650818,630.1672634601593,None,641.9508354187012,None,643.3507680892944,644.3509860038757,./data/Subject_07/Session_00/Exp_data/2020_Jul_17_1530/rec_QA_run_01_block_000_trial_003.wav,07,00,English,B1,True,False,True,False,False,True,True,True,True,True,True,True,No,1,No,No,No,No,2020_Jul_17_1530,nibs_stage_1,3.2.3,59.93087159233958,
1,0,1,0,0,0,0,0,4,0,4,0,,,,,,,,,,,,,,,,,,,,,,,,,Listen to the question and speak out your answer!,646.4177150726318,None,646.4011370182038,648.4013729095459,"Ein rotes Signal bedeutet, dass ich warten muss.",bedeutet,647.8011333465577,None,651.2346274375916,652.234689950943,663.002128314972,None,664.4020118713379,665.4020600318909,./data/Subject_07/Session_00/Exp_data/2020_Jul_17_1530/rec_QA_run_01_block_000_trial_004.wav,07,00,English,B1,True,False,True,False,False,True,True,True,True,True,True,True,No,1,No,No,No,No,2020_Jul_17_1530,nibs_stage_1,3.2.3,59.93087159233958,
1,0,1,0,0,0,0,0,5,0,5,0,,,,,,,,,,,,,,,,,,,,,,,,,Listen to the question and speak out your answer!,667.435802936554,None,667.4185747623444,669.4186849594116,"Ich muss das Buch zurückgeben, das mir ein Freund geliehen hat.",geliehen,668.8186034679413,672.4854099750519,672.9021114826203,673.9022328853607,684.0196234703064,None,685.4197380542755,686.4198639392853,./data/Subject_07/Session_00/Exp_data/2020_Jul_17_1530/rec_QA_run_01_block_000_trial_005.wav,07,00,English,B1,True,False,True,False,False,True,True,True,True,True,True,True,No,1,No,No,No,No,2020_Jul_17_1530,nibs_stage_1,3.2.3,59.93087159233958,
1,0,1,0,0,0,0,0,6,0,6,0,,,,,,,,,,,,,,,,,,,,,,,,,Listen to the question and speak out your answer!,688.469731092453,None,688.4530440807343,690.4530079364777,"Ich möchte einen weiteren Test durchführen, um die Ergebnisse zu prüfen.",prüfen,689.8530663967133,None,694.586878490448,695.5869140625,705.0540923595429,None,706.4541699886322,707.4542188644409,./data/Subject_07/Session_00/Exp_data/2020_Jul_17_1530/rec_QA_run_01_block_000_trial_006.wav,07,00,English,B1,True,False,True,False,False,True,True,True,True,True,True,True,No,1,No,No,No,No,2020_Jul_17_1530,nibs_stage_1,3.2.3,59.93087159233958,
1,0,1,0,0,0,0,0,7,0,7,0,,,,,,,,,,,,,,,,,,,,,,,,,Listen to the question and speak out your answer!,709.5043270587921,None,709.48739900589,711.4877660274506,Ich nehme nicht gerne Zucker zum Tee.,nehme,710.8709604263306,None,713.504434299469,714.5045800209045,726.0717772960663,727.0719239711761,727.4719059467316,728.4718759059906,./data/Subject_07/Session_00/Exp_data/2020_Jul_17_1530/rec_QA_run_01_block_000_trial_007.wav,07,00,English,B1,True,False,True,False,False,True,True,True,True,True,True,True,No,1,No,No,No,No,2020_Jul_17_1530,nibs_stage_1,3.2.3,59.93087159233958,
1,0,1,0,0,0,0,0,8,0,8,0,,,,,,,,,,,,,,,,,,,,,,,,,Listen to the question and speak out your answer!,730.5385689735413,None,730.5218481063844,732.5218689441681,Alle Wege führen nach Rom.,führen,731.9052454948426,733.8719410896301,734.2721893310547,None,747.1062514305115,None,748.5062639713287,749.5064220428467,./data/Subject_07/Session_00/Exp_data/2020_Jul_17_1530/rec_QA_run_01_block_000_trial_008.wav,07,00,English,B1,True,False,True,False,False,True,True,True,True,True,True,True,No,1,No,No,No,No,2020_Jul_17_1530,nibs_stage_1,3.2.3,59.93087159233958,
1,0,1,0,0,0,0,0,9,0,9,0,,,,,,,,,,,,,,,,,,,,,,,,,Listen to the question and speak out your answer!,751.5735850334167,None,751.5562550067903,753.5563769340515,"Er ist ein ehrlicher Mann, der nie lügt.",lügt,752.939598274231,755.3064460754395,755.7064733028412,None,768.140571308136,None,769.5405170917511,770.5405769348145,./data/Subject_07/Session_00/Exp_data/2020_Jul_17_1530/rec_QA_run_01_block_000_trial_009.wav,07,00,English,B1,True,False,True,False,False,True,True,True,True,True,True,True,No,1,No,No,No,No,2020_Jul_17_1530,nibs_stage_1,3.2.3,59.93087159233958,
1,0,1,0,0,0,0,0,10,0,10,0,,,,,,,,,,,,,,,,,,,,,,,,,Listen to the question and speak out your answer!,772.6074478626251,None,772.5905140876771,774.5908789634705,"Ich habe eine verletzte Hand, kannst du bitte die Knöpfe meiner Jacke öffnen?",öffnen,773.990762424469,None,778.6242572784424,779.6244070529938,789.1915764331818,None,790.5919010639191,791.5916919708252,./data/Subject_07/Session_00/Exp_data/2020_Jul_17_1530/rec_QA_run_01_block_000_trial_010.wav,07,00,English,B1,True,False,True,False,False,True,True,True,True,True,True,True,No,1,No,No,No,No,2020_Jul_17_1530,nibs_stage_1,3.2.3,59.93087159233958,
1,0,1,0,0,0,0,0,11,0,11,0,,,,,,,,,,,,,,,,,,,,,,,,,Listen to the question and speak out your answer!,793.6418309211731,None,793.6248721122743,795.6252238750458,Die Lampe hängt über dem Bett.,hängt,795.0084723949433,796.8585920333862,797.2752973556519,None,810.2093603134156,None,811.6093039512634,812.6094169616699,./data/Subject_07/Session_00/Exp_data/2020_Jul_17_1530/rec_QA_run_01_block_000_trial_011.wav,07,00,English,B1,True,False,True,False,False,True,True,True,True,True,True,True,No,1,No,No,No,No,2020_Jul_17_1530,nibs_stage_1,3.2.3,59.93087159233958,
1,0,1,0,0,0,0,0,12,0,12,0,,,,,,,,,,,,,,,,,,,,,,,,,Listen to the question and speak out your answer!,814.6762728691101,None,814.6593920230866,816.659637928009,Mit dem neuen System können wir Dokumente effizienter organisieren.,organisieren,816.0428382873536,None,820.5931844234467,None,831.2437142848969,None,832.6440229415894,833.6439900398254,./data/Subject_07/Session_00/Exp_data/2020_Jul_17_1530/rec_QA_run_01_block_000_trial_012.wav,07,00,English,B1,True,False,True,False,False,True,True,True,True,True,True,True,No,1,No,No,No,No,2020_Jul_17_1530,nibs_stage_1,3.2.3,59.93087159233958,
1,0,1,0,0,0,0,0,13,0,13,0,,,,,,,,,,,,,,,,,,,,,,,,,Listen to the question and speak out your answer!,835.7107429504395,None,835.6938301563264,837.6943740844727,"Die Deutschen sind immer organisiert und werden alles planen, bevor sie irgendetwas tun.",planen,837.0773612976075,842.1275420188904,842.5442964553833,843.5443658828735,852.2781424045563,None,853.6949138641357,None,./data/Subject_07/Session_00/Exp_data/2020_Jul_17_1530/rec_QA_run_01_block_000_trial_013.wav,07,00,English,B1,True,False,True,False,False,True,True,True,True,True,True,True,No,1,No,No,No,No,2020_Jul_17_1530,nibs_stage_1,3.2.3,59.93087159233958,
1,0,1,0,0,0,0,0,14,0,14,0,,,,,,,,,,,,,,,,,,,,,,,,,Listen to the question and speak out your answer!,856.7624099254608,None,856.7281331062318,858.7618260383606,Die Reparatur wird um ein hundert Euro kosten.,kosten,858.1451174736023,861.0285968780518,861.4119643688202,None,873.3458904743195,874.3626730442047,874.7626779079437,None,./data/Subject_07/Session_00/Exp_data/2020_Jul_17_1530/rec_QA_run_01_block_000_trial_014.wav,07,00,English,B1,True,False,True,False,False,True,True,True,True,True,True,True,No,1,No,No,No,No,2020_Jul_17_1530,nibs_stage_1,3.2.3,59.93087159233958,
1,0,1,0,0,0,0,0,15,0,15,0,,,,,,,,,,,,,,,,,,,,,,,,,Listen to the question and speak out your answer!,877.7797479629517,None,877.7625400066377,879.7795569896698,Die Verkäuferin beantwortete meine Fragen und konnte mich beraten.,beraten,879.1628884792328,None,883.6630954265595,884.6798400878906,894.3636724472046,None,895.7804050445557,None,./data/Subject_07/Session_00/Exp_data/2020_Jul_17_1530/rec_QA_run_01_block_000_trial_015.wav,07,00,English,B1,True,False,True,False,False,True,True,True,True,True,True,True,No,1,No,No,No,No,2020_Jul_17_1530,nibs_stage_1,3.2.3,59.93087159233958,
1,0,1,0,0,0,0,0,16,0,16,0,,,,,,,,,,,,,,,,,,,,,,,,,Listen to the question and speak out your answer!,898.830885887146,None,898.8136421680451,900.8307399749756,"Ich glaube nicht, dass es regnen wird, aber ich werde für alle Fälle einen Schirm mitnehmen.",glaube,900.2139653682709,None,905.7475914478302,None,915.414789390564,916.4314758777618,916.8316440582275,None,./data/Subject_07/Session_00/Exp_data/2020_Jul_17_1530/rec_QA_run_01_block_000_trial_016.wav,07,00,English,B1,True,False,True,False,False,True,True,True,True,True,True,True,No,1,No,No,No,No,2020_Jul_17_1530,nibs_stage_1,3.2.3,59.93087159233958,
1,0,1,0,0,0,0,0,17,0,17,0,,,,,,,,,,,,,,,,,,,,,,,,,Listen to the question and speak out your answer!,919.8988790512085,None,919.8648051261903,921.8984260559082,Halloween wurde schon von den Kelten gefeiert.,gefeiert,921.2816383361817,None,924.5152413368226,None,936.4826223373414,None,937.8992788791656,None,./data/Subject_07/Session_00/Exp_data/2020_Jul_17_1530/rec_QA_run_01_block_000_trial_017.wav,07,00,English,B1,True,False,True,False,False,True,True,True,True,True,True,True,No,1,No,No,No,No,2020_Jul_17_1530,nibs_stage_1,3.2.3,59.93087159233958,
1,0,1,0,0,0,0,0,18,0,18,0,,,,,,,,,,,,,,,,,,,,,,,,,Listen to the question and speak out your answer!,940.9330589771271,None,940.9158025741577,942.9328389167786,Herr Müller hat einen Flug auf die Mittelmeerinsel Mallorca gebucht.,gebucht,942.3161472797394,None,946.6830214977265,None,957.5169624805451,None,958.9336788654327,None,./data/Subject_07/Session_00/Exp_data/2020_Jul_17_1530/rec_QA_run_01_block_000_trial_018.wav,07,00,English,B1,True,False,True,False,False,True,True,True,True,True,True,True,No,1,No,No,No,No,2020_Jul_17_1530,nibs_stage_1,3.2.3,59.93087159233958,
1,0,1,0,0,0,0,0,19,0,19,0,,,,,,,,,,,,,,,,,,,,,,,,,Listen to the question and speak out your answer!,961.9672548770905,None,961.9335681438447,963.9671869277954,Meine kleine Schwester spielt draußen im Garten.,spielt,963.3505644321442,None,966.7507392883301,None,978.5514873981476,None,979.9680919647217,None,./data/Subject_07/Session_00/Exp_data/2020_Jul_17_1530/rec_QA_run_01_block_000_trial_019.wav,07,00,English,B1,True,False,True,False,False,True,True,True,True,True,True,True,No,1,No,No,No,No,2020_Jul_17_1530,nibs_stage_1,3.2.3,59.93087159233958,
1,0,1,0,0,0,0,0,20,0,20,0,,,,,,,,,,,,,,,,,,,,,,,,,Listen to the question and speak out your answer!,983.0021960735321,None,982.9679900646211,985.0016798973083,Der Detektiv ist ihm bis zu seinem Haus gefolgt.,gefolgt,984.384992313385,987.4354360103607,987.785164308548,None,999.5858842849732,None,1001.0025019645691,None,./data/Subject_07/Session_00/Exp_data/2020_Jul_17_1530/rec_QA_run_01_block_000_trial_020.wav,07,00,English,B1,True,False,True,False,False,True,True,True,True,True,True,True,No,1,No,No,No,No,2020_Jul_17_1530,nibs_stage_1,3.2.3,59.93087159233958,
1,0,1,0,0,0,0,0,21,0,21,0,,,,,,,,,,,,,,,,,,,,,,,,,Listen to the question and speak out your answer!,1004.0194029808044,None,1004.0024100780488,1006.019434928894,Er heißt tatsächlich Alexander doch alle nennen ihn Alex.,nennen,1005.4027645111084,1008.8531069755554,1009.2362982749939,None,1020.6035544395447,1021.6203880310059,1022.0202648639679,None,./data/Subject_07/Session_00/Exp_data/2020_Jul_17_1530/rec_QA_run_01_block_000_trial_021.wav,07,00,English,B1,True,False,True,False,False,True,True,True,True,True,True,True,No,1,No,No,No,No,2020_Jul_17_1530,nibs_stage_1,3.2.3,59.93087159233958,
1,0,1,0,0,0,0,0,22,0,22,0,,,,,,,,,,,,,,,,,,,,,,,,,Listen to the question and speak out your answer!,1025.0870759487152,None,1025.0534991264344,1027.0871970653534,Die Erklärungen des Lehrers haben absolut Sinn ergeben.,ergeben,1026.470486354828,1029.8873360157013,1030.2708203315735,1031.2874369621277,1041.6713253974915,None,1043.0881350040436,None,./data/Subject_07/Session_00/Exp_data/2020_Jul_17_1530/rec_QA_run_01_block_000_trial_022.wav,07,00,English,B1,True,False,True,False,False,True,True,True,True,True,True,True,No,1,No,No,No,No,2020_Jul_17_1530,nibs_stage_1,3.2.3,59.93087159233958,
1,0,1,0,0,0,0,0,23,0,23,0,,,,,,,,,,,,,,,,,,,,,,,,,Listen to the question and speak out your answer!,1046.1216039657593,None,1046.0879222393037,1048.12162899971,Ein Regenbogen besteht aus vielen Farben.,besteht,1047.5049194812775,1050.221715927124,1050.5717784881592,1051.5884549617767,1062.6722714424134,None,1064.089107990265,None,./data/Subject_07/Session_00/Exp_data/2020_Jul_17_1530/rec_QA_run_01_block_000_trial_023.wav,07,00,English,B1,True,False,True,False,False,True,True,True,True,True,True,True,No,1,No,No,No,No,2020_Jul_17_1530,nibs_stage_1,3.2.3,59.93087159233958,
1,0,1,0,0,0,0,0,24,0,24,0,,,,,,,,,,,,,,,,,,,,,,,,,Listen to the question and speak out your answer!,1067.1560049057007,None,1067.1223432064057,1069.1560189723969,Meine dicke Katze muss abnehmen.,abnehmen,1068.539316368103,None,1070.8727793216706,None,1083.7401363372803,None,1085.1568369865417,None,./data/Subject_07/Session_00/Exp_data/2020_Jul_17_1530/rec_QA_run_01_block_000_trial_024.wav,07,00,English,B1,True,False,True,False,False,True,True,True,True,True,True,True,No,1,No,No,No,No,2020_Jul_17_1530,nibs_stage_1,3.2.3,59.93087159233958,
1,0,1,0,0,0,0,0,,,,,,,,,,,,,,,,,,1089.1737520694733,None,,,,,,,,,,,,,,,,,,,,,,,,,,07,00,English,B1,True,False,True,False,False,True,True,True,True,True,True,True,No,1,No,No,No,No,2020_Jul_17_1530,nibs_stage_1,3.2.3,59.93087159233958,
1,0,1,0,1,0,1,0,0,0,0,0,,,,,,,,,,,,,,,,,,,,,,,,,Listen to the question and speak out your answer!,1104.1746270656586,None,1104.1574321746828,1106.1745910644531,"Früh übt sich, wer ein Meister werden will.",werden,1105.557878446579,1108.3080189228058,1108.6912753105164,None,1120.758649301529,None,1122.1755418777466,None,./data/Subject_07/Session_00/Exp_data/2020_Jul_17_1530/rec_QA_run_01_block_001_trial_000.wav,07,00,English,B1,True,False,True,False,False,True,True,True,True,True,True,True,No,1,No,No,No,No,2020_Jul_17_1530,nibs_stage_1,3.2.3,59.93087159233958,
1,0,1,0,1,0,1,0,1,0,1,0,,,,,,,,,,,,,,,,,,,,,,,,,Listen to the question and speak out your answer!,1125.2091310024261,None,1125.1919654369356,1127.209018945694,Sie kümmert sich nur um ihre eigenen Angelegenheiten.,kümmert,1126.5922634124756,None,1130.2258193016053,None,1141.7930643081665,1142.8098859786987,1143.209734916687,None,./data/Subject_07/Session_00/Exp_data/2020_Jul_17_1530/rec_QA_run_01_block_001_trial_001.wav,07,00,English,B1,True,False,True,False,False,True,True,True,True,True,True,True,No,1,No,No,No,No,2020_Jul_17_1530,nibs_stage_1,3.2.3,59.93087159233958,
1,0,1,0,1,0,1,0,2,0,2,0,,,,,,,,,,,,,,,,,,,,,,,,,Listen to the question and speak out your answer!,1146.277312040329,None,1146.2430600166322,1148.2767260074615,Zu Beginn der Konferenz wird der Präsident eine Rede halten.,halten,1147.626753282547,None,1151.7602943897248,None,1162.8273984909058,None,1164.2442090511322,None,./data/Subject_07/Session_00/Exp_data/2020_Jul_17_1530/rec_QA_run_01_block_001_trial_002.wav,07,00,English,B1,True,False,True,False,False,True,True,True,True,True,True,True,No,1,No,No,No,No,2020_Jul_17_1530,nibs_stage_1,3.2.3,59.93087159233958,
1,0,1,0,1,0,1,0,3,0,3,0,,,,,,,,,,,,,,,,,,,,,,,,,Listen to the question and speak out your answer!,1167.3114049434662,None,1167.2942315101625,1169.311143875122,"Befristete Verträge enden automatisch, wenn sie nicht erneuert werden.",enden,1168.6944224357605,1172.9780819416046,1173.3613295078278,1174.3779881000519,1183.8953213214875,None,1185.3119869232178,None,./data/Subject_07/Session_00/Exp_data/2020_Jul_17_1530/rec_QA_run_01_block_001_trial_003.wav,07,00,English,B1,True,False,True,False,False,True,True,True,True,True,True,True,No,1,No,No,No,No,2020_Jul_17_1530,nibs_stage_1,3.2.3,59.93087159233958,
1,0,1,0,1,0,1,0,4,0,4,0,,,,,,,,,,,,,,,,,,,,,,,,,Listen to the question and speak out your answer!,1188.3291969299316,None,1188.311859035492,1190.329164981842,Ich koche die Kartoffeln für die Kartoffelsuppe.,koche,1189.7121953487397,None,1192.8790354251862,1193.8957459926605,1204.8962983608246,None,1206.3130419254303,None,./data/Subject_07/Session_00/Exp_data/2020_Jul_17_1530/rec_QA_run_01_block_001_trial_004.wav,07,00,English,B1,True,False,True,False,False,True,True,True,True,True,True,True,No,1,No,No,No,No,2020_Jul_17_1530,nibs_stage_1,3.2.3,59.93087159233958,
1,0,1,0,1,0,1,0,5,0,5,0,,,,,,,,,,,,,,,,,,,,,,,,,Listen to the question and speak out your answer!,1209.3804399967194,None,1209.3462652206422,1211.3800659179688,Du muss deine schmutzige Kleidung in der Wäscherei waschen.,waschen,1210.7632603168488,None,1214.2967984199524,None,1225.9640404701233,None,1227.380805015564,None,./data/Subject_07/Session_00/Exp_data/2020_Jul_17_1530/rec_QA_run_01_block_001_trial_005.wav,07,00,English,B1,True,False,True,False,False,True,True,True,True,True,True,True,No,1,No,No,No,No,2020_Jul_17_1530,nibs_stage_1,3.2.3,59.93087159233958,
1,0,1,0,1,0,1,0,6,0,6,0,,,,,,,,,,,,,,,,,,,,,,,,,Listen to the question and speak out your answer!,1230.41606092453,None,1230.3973425388338,1232.4143640995026,Er hilft der alten Frau beim Einsteigen ins Auto.,hilft,1231.7978825092316,1235.014405965805,1235.3978294849396,None,1246.9817842960358,None,1248.398640871048,None,./data/Subject_07/Session_00/Exp_data/2020_Jul_17_1530/rec_QA_run_01_block_001_trial_006.wav,07,00,English,B1,True,False,True,False,False,True,True,True,True,True,True,True,No,1,No,No,No,No,2020_Jul_17_1530,nibs_stage_1,3.2.3,59.93087159233958,
1,0,1,0,1,0,1,0,7,0,7,0,,,,,,,,,,,,,,,,,,,,,,,,,Listen to the question and speak out your answer!,1251.46595287323,None,1251.4317912101747,1253.4654490947723,"Wenn man seine Zähne putzt, muss er die Zahnpasta auf Zahnbürste pressen.",putzt,1252.8487493515015,1257.1656589508057,1257.5489882946015,None,1268.0495364189148,None,1269.4662680625916,None,./data/Subject_07/Session_00/Exp_data/2020_Jul_17_1530/rec_QA_run_01_block_001_trial_007.wav,07,00,English,B1,True,False,True,False,False,True,True,True,True,True,True,True,No,1,No,No,No,No,2020_Jul_17_1530,nibs_stage_1,3.2.3,59.93087159233958,
1,0,1,0,1,0,1,0,8,0,8,0,,,,,,,,,,,,,,,,,,,,,,,,,Listen to the question and speak out your answer!,1272.4849898815155,None,1272.4661771297456,1274.483195066452,"Bitte zieh deinen Mantel an, es ist kalt draußen.",zieh,1273.8665992736817,None,1277.3667025089264,None,1289.0673183918,1290.0840010643005,1290.4841768741608,None,./data/Subject_07/Session_00/Exp_data/2020_Jul_17_1530/rec_QA_run_01_block_001_trial_008.wav,07,00,English,B1,True,False,True,False,False,True,True,True,True,True,True,True,No,1,No,No,No,No,2020_Jul_17_1530,nibs_stage_1,3.2.3,59.93087159233958,
1,0,1,0,1,0,1,0,9,0,9,0,,,,,,,,,,,,,,,,,,,,,,,,,Listen to the question and speak out your answer!,1293.5182268619537,None,1293.483910226822,1295.5175909996033,Wir sollten das Menü auf ein grünes Blatt Papier drucken.,drucken,1294.9009193897248,None,1298.7013585090638,1299.7178349494934,1310.1016313552857,None,1311.5184280872345,None,./data/Subject_07/Session_00/Exp_data/2020_Jul_17_1530/rec_QA_run_01_block_001_trial_009.wav,07,00,English,B1,True,False,True,False,False,True,True,True,True,True,True,True,No,1,No,No,No,No,2020_Jul_17_1530,nibs_stage_1,3.2.3,59.93087159233958,
1,0,1,0,1,0,1,0,10,0,10,0,,,,,,,,,,,,,,,,,,,,,,,,,Listen to the question and speak out your answer!,1314.5525679588318,None,1314.518313074112,1316.5520808696747,"Mein Bett ist gemütlich und warm, ich möchte nicht aufstehen.",aufstehen,1315.9019934654236,1319.4188289642334,1319.835514497757,None,1331.1027752876282,None,1332.5194990634918,None,./data/Subject_07/Session_00/Exp_data/2020_Jul_17_1530/rec_QA_run_01_block_001_trial_010.wav,07,00,English,B1,True,False,True,False,False,True,True,True,True,True,True,True,No,1,No,No,No,No,2020_Jul_17_1530,nibs_stage_1,3.2.3,59.93087159233958,
1,0,1,0,1,0,1,0,11,0,11,0,,,,,,,,,,,,,,,,,,,,,,,,,Listen to the question and speak out your answer!,1335.586907863617,None,1335.5527180671693,1337.5864419937134,"Es hat die ganze Woche geregnet, aber heute scheint endlich die Sonne. ",scheint,1336.9363913059235,1341.086611032486,1341.503335428238,None,1352.1371733665467,None,1353.5539178848267,None,./data/Subject_07/Session_00/Exp_data/2020_Jul_17_1530/rec_QA_run_01_block_001_trial_011.wav,07,00,English,B1,True,False,True,False,False,True,True,True,True,True,True,True,No,1,No,No,No,No,2020_Jul_17_1530,nibs_stage_1,3.2.3,59.93087159233958,
1,0,1,0,1,0,1,0,12,0,12,0,,,,,,,,,,,,,,,,,,,,,,,,,Listen to the question and speak out your answer!,1356.6213850975037,None,1356.587578201294,1358.6208319664001,"Er bevorzugt die Farben gelb, orange und rot.",bevorzugt,1358.0040754795075,None,1361.5045134544373,1362.5210299491882,1373.2049114227295,1374.2219359874725,1374.621661901474,None,./data/Subject_07/Session_00/Exp_data/2020_Jul_17_1530/rec_QA_run_01_block_001_trial_012.wav,07,00,English,B1,True,False,True,False,False,True,True,True,True,True,True,True,No,1,No,No,No,No,2020_Jul_17_1530,nibs_stage_1,3.2.3,59.93087159233958,
1,0,1,0,1,0,1,0,13,0,13,0,,,,,,,,,,,,,,,,,,,,,,,,,Listen to the question and speak out your answer!,1377.6398499011993,None,1377.6215151786805,1379.6386210918427,Das Auto wurde in Deutschland hergestellt.,hergestellt,1379.0218874931336,1381.5719680786133,1381.9553653717041,None,1394.2227093696595,None,1395.6394000053406,None,./data/Subject_07/Session_00/Exp_data/2020_Jul_17_1530/rec_QA_run_01_block_001_trial_013.wav,07,00,English,B1,True,False,True,False,False,True,True,True,True,True,True,True,No,1,No,No,No,No,2020_Jul_17_1530,nibs_stage_1,3.2.3,59.93087159233958,
1,0,1,0,1,0,1,0,14,0,14,0,,,,,,,,,,,,,,,,,,,,,,,,,Listen to the question and speak out your answer!,1398.7074649333954,None,1398.689317560196,1400.7063360214233,"Chris hat Zahnschmerzen, aber er fürchtet sich vor dem Zahnarzt.",fürchtet,1400.0896374702454,1404.239816904068,1404.5898694515229,None,1415.2570693016053,None,1416.6738030910492,None,./data/Subject_07/Session_00/Exp_data/2020_Jul_17_1530/rec_QA_run_01_block_001_trial_014.wav,07,00,English,B1,True,False,True,False,False,True,True,True,True,True,True,True,No,1,No,No,No,No,2020_Jul_17_1530,nibs_stage_1,3.2.3,59.93087159233958,
1,0,1,0,1,0,1,0,15,0,15,0,,,,,,,,,,,,,,,,,,,,,,,,,Listen to the question and speak out your answer!,1419.741291999817,None,1419.7070290088654,1421.740756034851,"Ich habe keine Ahnung, wie viel du für das Auto gezahlt hast, aber lass mich mal raten.",raten,1421.1240493774415,None,1426.72432346344,None,1436.32482047081,None,1437.7415480613708,None,./data/Subject_07/Session_00/Exp_data/2020_Jul_17_1530/rec_QA_run_01_block_001_trial_015.wav,07,00,English,B1,True,False,True,False,False,True,True,True,True,True,True,True,No,1,No,No,No,No,2020_Jul_17_1530,nibs_stage_1,3.2.3,59.93087159233958,
1,0,1,0,1,0,1,0,16,0,16,0,,,,,,,,,,,,,,,,,,,,,,,,,Listen to the question and speak out your answer!,1440.775733947754,None,1440.7414640426637,1442.7751569747925,Ihr Regenschirm kann Sie vor dem Regen schützen.,schützen,1442.1584612846375,1444.8754570484161,1445.2586314201355,None,1457.3592664718628,None,1458.7759990692139,None,./data/Subject_07/Session_00/Exp_data/2020_Jul_17_1530/rec_QA_run_01_block_001_trial_016.wav,07,00,English,B1,True,False,True,False,False,True,True,True,True,True,True,True,No,1,No,No,No,No,2020_Jul_17_1530,nibs_stage_1,3.2.3,59.93087159233958,
1,0,1,0,1,0,1,0,17,0,17,0,,,,,,,,,,,,,,,,,,,,,,,,,Listen to the question and speak out your answer!,1461.8095750808716,None,1461.775878095627,1463.8097019195557,"Die Regierung plant, mehr Arbeitsplätze für junge Menschen zu schaffen.",schaffen,1463.192877483368,None,1467.659763288498,1468.6765229701996,1478.393648338318,None,1479.8103818893433,None,./data/Subject_07/Session_00/Exp_data/2020_Jul_17_1530/rec_QA_run_01_block_001_trial_017.wav,07,00,English,B1,True,False,True,False,False,True,True,True,True,True,True,True,No,1,No,No,No,No,2020_Jul_17_1530,nibs_stage_1,3.2.3,59.93087159233958,
1,0,1,0,1,0,1,0,18,0,18,0,,,,,,,,,,,,,,,,,,,,,,,,,Listen to the question and speak out your answer!,1482.8455839157104,None,1482.8269644737245,1484.8439869880676,Der ganze Kurs bestand die Prüfung.,bestand,1484.2272054672242,1486.510745048523,1486.8608693599701,1487.8774809837341,1499.4280893325806,1500.4447820186615,1500.84490609169,None,./data/Subject_07/Session_00/Exp_data/2020_Jul_17_1530/rec_QA_run_01_block_001_trial_018.wav,07,00,English,B1,True,False,True,False,False,True,True,True,True,True,True,True,No,1,No,No,No,No,2020_Jul_17_1530,nibs_stage_1,3.2.3,59.93087159233958,
1,0,1,0,1,0,1,0,19,0,19,0,,,,,,,,,,,,,,,,,,,,,,,,,Listen to the question and speak out your answer!,1503.9122760295868,None,1503.8780371189118,1505.912311077118,"Der Assistent ging zurück ins Büro, um die Dokumente zu holen.",holen,1505.261705350876,None,1509.6285852909089,None,1520.4624683380127,None,1521.8792469501495,None,./data/Subject_07/Session_00/Exp_data/2020_Jul_17_1530/rec_QA_run_01_block_001_trial_019.wav,07,00,English,B1,True,False,True,False,False,True,True,True,True,True,True,True,No,1,No,No,No,No,2020_Jul_17_1530,nibs_stage_1,3.2.3,59.93087159233958,
1,0,1,0,1,0,1,0,20,0,20,0,,,,,,,,,,,,,,,,,,,,,,,,,Listen to the question and speak out your answer!,1524.9461579322815,None,1524.9126152038575,1526.946151971817,Grossbritannien hat die EU verlassen.,verlassen,1526.2961163043976,1528.7463419437408,1529.1628694057465,None,1541.4969753742218,1542.51362490654,1542.913635969162,None,./data/Subject_07/Session_00/Exp_data/2020_Jul_17_1530/rec_QA_run_01_block_001_trial_020.wav,07,00,English,B1,True,False,True,False,False,True,True,True,True,True,True,True,No,1,No,No,No,No,2020_Jul_17_1530,nibs_stage_1,3.2.3,59.93087159233958,
1,0,1,0,1,0,1,0,21,0,21,0,,,,,,,,,,,,,,,,,,,,,,,,,Listen to the question and speak out your answer!,1545.9819869995117,None,1545.9635666370393,1547.9805710315704,Um Mitternacht schließt das Lokal.,schließt,1547.3638753414155,None,1549.8639833450318,None,1562.5646223545075,None,1563.9814250469208,None,./data/Subject_07/Session_00/Exp_data/2020_Jul_17_1530/rec_QA_run_01_block_001_trial_021.wav,07,00,English,B1,True,False,True,False,False,True,True,True,True,True,True,True,No,1,No,No,No,No,2020_Jul_17_1530,nibs_stage_1,3.2.3,59.93087159233958,
1,0,1,0,1,0,1,0,22,0,22,0,,,,,,,,,,,,,,,,,,,,,,,,,Listen to the question and speak out your answer!,1567.015527009964,None,1566.98127617836,1569.0151059627533,Der Mond umkreist die Erde in ungefähr achtundzwanzig Tagen.,umkreist,1568.3982834339142,1572.181804895401,1572.565267276764,None,1583.5990633487702,None,1585.0157968997955,None,./data/Subject_07/Session_00/Exp_data/2020_Jul_17_1530/rec_QA_run_01_block_001_trial_022.wav,07,00,English,B1,True,False,True,False,False,True,True,True,True,True,True,True,No,1,No,No,No,No,2020_Jul_17_1530,nibs_stage_1,3.2.3,59.93087159233958,
1,0,1,0,1,0,1,0,23,0,23,0,,,,,,,,,,,,,,,,,,,,,,,,,Listen to the question and speak out your answer!,1588.0492990016937,None,1588.0156852245332,1590.049479007721,Rom wurde nicht an einem Tag erbaut.,erbaut,1589.3993844509125,None,1592.166097354889,1593.1829059123993,1604.6001305103302,None,1606.0171449184418,None,./data/Subject_07/Session_00/Exp_data/2020_Jul_17_1530/rec_QA_run_01_block_001_trial_023.wav,07,00,English,B1,True,False,True,False,False,True,True,True,True,True,True,True,No,1,No,No,No,No,2020_Jul_17_1530,nibs_stage_1,3.2.3,59.93087159233958,
1,0,1,0,1,0,1,0,24,0,24,0,,,,,,,,,,,,,,,,,,,,,,,,,Listen to the question and speak out your answer!,1609.084331035614,None,1609.0503882408143,1611.0838029384613,"Wenn genug Schnee liegt, fahren sie gerne Schi.",fahren,1610.4337694168091,1613.2839179039001,1613.7006012916565,None,1625.6346942901612,None,1627.0512700080872,None,./data/Subject_07/Session_00/Exp_data/2020_Jul_17_1530/rec_QA_run_01_block_001_trial_024.wav,07,00,English,B1,True,False,True,False,False,True,True,True,True,True,True,True,No,1,No,No,No,No,2020_Jul_17_1530,nibs_stage_1,3.2.3,59.93087159233958,
