run.thisRepN,run.thisTrialN,run.thisN,run.thisIndex,QA_block.thisRepN,QA_block.thisTrialN,QA_block.thisN,QA_block.thisIndex,QA_trial.thisRepN,QA_trial.thisTrialN,QA_trial.thisN,QA_trial.thisIndex,post_trial.thisRepN,post_trial.thisTrialN,post_trial.thisN,post_trial.thisIndex,Cali_de_post_rec_text.text,Cali_de_post_rec_text.started,Cali_de_post_rec_text.stopped,Cali_de_post_rec_beep_hint.started,Cali_de_post_rec_beep_hint.stopped,Cali_de_post_rec_question_text.text,Cali_de_post_rec_question_text.started,Cali_de_post_rec_question_text.stopped,Cali_de_post_rec_beep_start.started,Cali_de_post_rec_beep_start.stopped,Cali_de_post_rec_beep_end.started,Cali_de_post_rec_beep_end.stopped,Cali_de_post_rec_break.started,Cali_de_post_rec_break.stopped,filename,the_end_text.started,the_end_text.stopped,the_end_text.text,participant,session,First language,German level,Full_screen,Instruction,Intro,Artifact,Cali_pre,Fade_in_out,Artifact_within,Resting_State,QA,Pause,Cali_post,End,Breakpoint_Cali_pre_trial,Breakpoint_Run,Breakpoint_RS_block,Breakpoint_QA_block,Breakpoint_QA_trial,Breakpoint_Cali_post_trial,date,expName,psychopyVersion,frameRate,
0,0,0,0,0,0,0,0,,,,,,,,,,,,,,,,,,,,,,,,,,,07,00,English,B1,True,False,False,False,False,False,False,False,False,False,True,True,No,No,No,No,No,No,2020_Jul_17_1714,nibs_stage_1,3.2.3,60.00675277407393,
0,0,0,0,1,0,1,0,,,,,,,,,,,,,,,,,,,,,,,,,,,07,00,English,B1,True,False,False,False,False,False,False,False,False,False,True,True,No,No,No,No,No,No,2020_Jul_17_1714,nibs_stage_1,3.2.3,60.00675277407393,
0,0,0,0,,,,,,,,,,,,,,,,,,,,,,,,,,,,,,,07,00,English,B1,True,False,False,False,False,False,False,False,False,False,True,True,No,No,No,No,No,No,2020_Jul_17_1714,nibs_stage_1,3.2.3,60.00675277407393,
1,0,1,0,0,0,0,0,,,,,,,,,,,,,,,,,,,,,,,,,,,07,00,English,B1,True,False,False,False,False,False,False,False,False,False,True,True,No,No,No,No,No,No,2020_Jul_17_1714,nibs_stage_1,3.2.3,60.00675277407393,
1,0,1,0,1,0,1,0,,,,,,,,,,,,,,,,,,,,,,,,,,,07,00,English,B1,True,False,False,False,False,False,False,False,False,False,True,True,No,No,No,No,No,No,2020_Jul_17_1714,nibs_stage_1,3.2.3,60.00675277407393,
1,0,1,0,,,,,,,,,,,,,,,,,,,,,,,,,,,,,,,07,00,English,B1,True,False,False,False,False,False,False,False,False,False,True,True,No,No,No,No,No,No,2020_Jul_17_1714,nibs_stage_1,3.2.3,60.00675277407393,
2,0,2,0,0,0,0,0,,,,,,,,,,,,,,,,,,,,,,,,,,,07,00,English,B1,True,False,False,False,False,False,False,False,False,False,True,True,No,No,No,No,No,No,2020_Jul_17_1714,nibs_stage_1,3.2.3,60.00675277407393,
2,0,2,0,1,0,1,0,,,,,,,,,,,,,,,,,,,,,,,,,,,07,00,English,B1,True,False,False,False,False,False,False,False,False,False,True,True,No,No,No,No,No,No,2020_Jul_17_1714,nibs_stage_1,3.2.3,60.00675277407393,
2,0,2,0,,,,,,,,,,,,,,,,,,,,,,,,,,,,,,,07,00,English,B1,True,False,False,False,False,False,False,False,False,False,True,True,No,No,No,No,No,No,2020_Jul_17_1714,nibs_stage_1,3.2.3,60.00675277407393,
3,0,3,0,0,0,0,0,,,,,,,,,,,,,,,,,,,,,,,,,,,07,00,English,B1,True,False,False,False,False,False,False,False,False,False,True,True,No,No,No,No,No,No,2020_Jul_17_1714,nibs_stage_1,3.2.3,60.00675277407393,
3,0,3,0,1,0,1,0,,,,,,,,,,,,,,,,,,,,,,,,,,,07,00,English,B1,True,False,False,False,False,False,False,False,False,False,True,True,No,No,No,No,No,No,2020_Jul_17_1714,nibs_stage_1,3.2.3,60.00675277407393,
3,0,3,0,,,,,,,,,,,,,,,,,,,,,,,,,,,,,,,07,00,English,B1,True,False,False,False,False,False,False,False,False,False,True,True,No,No,No,No,No,No,2020_Jul_17_1714,nibs_stage_1,3.2.3,60.00675277407393,
,,,,,,,,,,,,0,0,0,0,,62.36074709892273,None,62.35070433616639,64.36100316047668,Eine Woche hat sieben Tage.,63.74412393569946,81.34504413604736,65.14418776035309,None,77.9448228597641,None,79.34487915039062,81.34504413604736,./data/Subject_07/Session_00/Exp_data/2020_Jul_17_1714/rec_cali_de_post_trial_000.wav,,,,07,00,English,B1,True,False,False,False,False,False,False,False,False,False,True,True,No,No,No,No,No,No,2020_Jul_17_1714,nibs_stage_1,3.2.3,60.00675277407393,
,,,,,,,,,,,,1,0,1,0,,84.37829899787903,None,84.35971314907074,86.36182713508606,Entweder hat mir jemand die Geldtasche gestohlen oder ich habe sie verloren.,85.76178908348083,103.36263799667358,87.16183979511261,None,99.96243674755097,None,101.36252808570862,103.36263799667358,./data/Subject_07/Session_00/Exp_data/2020_Jul_17_1714/rec_cali_de_post_trial_001.wav,,,,07,00,English,B1,True,False,False,False,False,False,False,False,False,False,True,True,No,No,No,No,No,No,2020_Jul_17_1714,nibs_stage_1,3.2.3,60.00675277407393,
,,,,,,,,,,,,2,0,2,0,,106.39612412452698,None,106.37730915546418,108.37953805923462,"Aus den Augen, aus dem Sinn.",107.77942705154419,125.38044095039368,109.17956883907318,None,121.98025686740876,None,123.38041996955872,125.38044095039368,./data/Subject_07/Session_00/Exp_data/2020_Jul_17_1714/rec_cali_de_post_trial_002.wav,,,,07,00,English,B1,True,False,False,False,False,False,False,False,False,False,True,True,No,No,No,No,No,No,2020_Jul_17_1714,nibs_stage_1,3.2.3,60.00675277407393,
,,,,,,,,,,,,3,0,3,0,,128.4140100479126,None,128.39511115550994,130.39735102653503,"Ja, das Wasser aus der Leitung kann man trinken.",129.79733896255493,147.39824295043945,131.19736177921294,None,143.9980579137802,None,145.39815306663513,147.39824295043945,./data/Subject_07/Session_00/Exp_data/2020_Jul_17_1714/rec_cali_de_post_trial_003.wav,,,,07,00,English,B1,True,False,False,False,False,False,False,False,False,False,True,True,No,No,No,No,No,No,2020_Jul_17_1714,nibs_stage_1,3.2.3,60.00675277407393,
,,,,,,,,,,,,4,0,4,0,,150.43182611465454,None,150.4129451036453,152.41517901420593,Dieses Brot ist maschinell hergestellt worden.,151.81514310836792,169.41595315933228,153.21518189907073,None,165.9994109392166,None,167.4159290790558,169.41595315933228,./data/Subject_07/Session_00/Exp_data/2020_Jul_17_1714/rec_cali_de_post_trial_004.wav,,,,07,00,English,B1,True,False,False,False,False,False,False,False,False,False,True,True,No,No,No,No,No,No,2020_Jul_17_1714,nibs_stage_1,3.2.3,60.00675277407393,
,,,,,,,,,,,,5,0,5,0,,172.4497151374817,None,172.4307242155075,174.43297815322876,"Ich heiße Tibor, wie ist dein Name?",173.83286309242249,191.4338459968567,175.2329829454422,None,188.03366096019744,None,189.433748960495,191.4338459968567,./data/Subject_07/Session_00/Exp_data/2020_Jul_17_1714/rec_cali_de_post_trial_005.wav,,,,07,00,English,B1,True,False,False,False,False,False,False,False,False,False,True,True,No,No,No,No,No,No,2020_Jul_17_1714,nibs_stage_1,3.2.3,60.00675277407393,
,,,,,,,,,,,,6,0,6,0,,194.46734499931335,None,194.44851429462432,196.45076704025269,Mama hat einen Kuchen gebacken.,195.85073113441467,213.45188093185425,197.25080687999724,None,210.03506381511687,None,211.4351360797882,213.43513107299805,./data/Subject_07/Session_00/Exp_data/2020_Jul_17_1714/rec_cali_de_post_trial_006.wav,,,,07,00,English,B1,True,False,False,False,False,False,False,False,False,False,True,True,No,No,No,No,No,No,2020_Jul_17_1714,nibs_stage_1,3.2.3,60.00675277407393,
,,,,,,,,,,,,7,0,7,0,,216.48530507087708,None,216.46653325557708,218.4688310623169,Ein Gewitter besteht aus Blitz und Donner.,217.86877298355103,235.46967196464539,219.26884777545928,220.2688910961151,232.06947095394133,None,233.4862151145935,235.4862620830536,./data/Subject_07/Session_00/Exp_data/2020_Jul_17_1714/rec_cali_de_post_trial_007.wav,,,,07,00,English,B1,True,False,False,False,False,False,False,False,False,False,True,True,No,No,No,No,No,No,2020_Jul_17_1714,nibs_stage_1,3.2.3,60.00675277407393,
,,,,,,,,,,,,8,0,8,0,,238.50322604179382,None,238.48465807437896,240.4865119457245,Der Mars hat eine orangerote Farbe.,239.8867609500885,257.48749113082886,241.28656990528106,None,254.08727176189421,255.08735609054565,255.48751497268677,257.48749113082886,./data/Subject_07/Session_00/Exp_data/2020_Jul_17_1714/rec_cali_de_post_trial_008.wav,,,,07,00,English,B1,True,False,False,False,False,False,False,False,False,False,True,True,No,No,No,No,No,No,2020_Jul_17_1714,nibs_stage_1,3.2.3,60.00675277407393,
,,,,,,,,,,,,9,0,9,0,,260.52128505706787,None,260.5021832704544,262.50444412231445,Durch die Klimaveränderung steigen die Temperaturen auf der Erde.,261.90436697006226,279.5052101612091,263.3043609380722,None,276.1050928354263,277.10516905784607,277.50525307655334,279.5052101612091,./data/Subject_07/Session_00/Exp_data/2020_Jul_17_1714/rec_cali_de_post_trial_009.wav,,,,07,00,English,B1,True,False,False,False,False,False,False,False,False,False,True,True,No,No,No,No,No,No,2020_Jul_17_1714,nibs_stage_1,3.2.3,60.00675277407393,
,,,,,,,,,,,,,,,,,,,,,,,,,,,,,,,282.5390200614929,None," This experiment is finished. 
Thanks for your participation.",,,,,,,,,,,,,,,,,,,,,,,,,,,
