run.thisRepN,run.thisTrialN,run.thisN,run.thisIndex,artifact_trial.thisRepN,artifact_trial.thisTrialN,artifact_trial.thisN,artifact_trial.thisIndex,QA_block.thisRepN,QA_block.thisTrialN,QA_block.thisN,QA_block.thisIndex,QA_trial.thisRepN,QA_trial.thisTrialN,QA_trial.thisN,QA_trial.thisIndex,fade_in_text.text,fade_in_text.started,fade_in_text.stopped,Artifact_intro_title.started,Artifact_intro_title.stopped,Artifact_intro_text.text,Artifact_intro_text.started,Artifact_intro_text.stopped,Artifact_intro_audio.started,Artifact_intro_audio.stopped,Artifact_intro_cont.started,Artifact_intro_cont.stopped,Artifact_rec_text.text,Artifact_rec_text.started,Artifact_rec_text.stopped,Artifact_rec_beep_hint.started,Artifact_rec_beep_hint.stopped,Artifact_rec_action.started,Artifact_rec_action.stopped,Artifact_rec_beep_start.started,Artifact_rec_beep_start.stopped,Artifact_rec_recording.started,Artifact_rec_recording.stopped,Artifact_rec_beep_end.started,Artifact_rec_beep_end.stopped,Artifact_rec_break.started,Artifact_rec_break.stopped,RS_intro_title.started,RS_intro_title.stopped,RS_intro_text.text,RS_intro_text.started,RS_intro_text.stopped,RS_intro_audio.started,RS_intro_audio.stopped,RS_rec_text.text,RS_rec_text.started,RS_rec_text.stopped,Pause_cont.started,Pause_cont.stopped,QA_intro_title.started,QA_intro_title.stopped,QA_intro_text.text,QA_intro_text.started,QA_intro_text.stopped,QA_intro_audio.started,QA_intro_audio.stopped,QA_intro_cont.started,QA_intro_cont.stopped,QA_rec_text.text,QA_rec_text.started,QA_rec_text.stopped,QA_rec_beep_hint.started,QA_rec_beep_hint.stopped,QA_rec_question.sen_text,QA_rec_question.cen_text,QA_rec_question.started,QA_rec_question.stopped,QA_rec_beep_start.started,QA_rec_beep_start.stopped,QA_rec_beep_end.started,QA_rec_beep_end.stopped,QA_rec_break.started,QA_rec_break.stopped,filename,participant,session,First language,German level,Full_screen,Instruction,Intro,Artifact,Cali_pre,Fade_in_out,Artifact_within,Resting_State,QA,Pause,Cali_post,End,Breakpoint_Cali_pre_trial,Breakpoint_Run,Breakpoint_RS_block,Breakpoint_QA_block,Breakpoint_QA_trial,Breakpoint_Cali_post_trial,date,expName,psychopyVersion,frameRate,
2,0,2,0,0,0,0,0,,,,,,,,,Please remain seated until further instruction via the earphone.,60.714388847351074,None,62.74781680107117,89.74925398826599,"  - Task: Artifacts collection   
  - Please follow audio instruction              
",62.74781680107117,89.74925398826599,62.73212387561798,None,89.11589193344116,None,,92.24942898750305,None,92.23347189426423,94.23284482955933,93.61612536907197,None,97.01632144451142,None,98.41653134822846,108.41667985916138,108.81668331623078,None,110.21675300598145,111.21709895133972,,,,,,,,,,,,,,,,,,,,,,,,,,,,,,,,,,,,,,06,00,Dutch,A2,True,False,True,False,False,True,True,True,True,True,True,True,No,2,No,No,No,No,2020_Jul_10_1426,nibs_stage_1,3.2.3,60.01963303960093,
2,0,2,0,1,0,1,0,,,,,,,,,,,,,,,,,,,,,,114.25093698501587,None,114.25153090953827,116.26710391044617,115.63401129245759,None,119.03392841815949,None,120.43393137454987,130.43450284004211,130.8345372915268,None,132.23452591896057,133.23465490341187,,,,,,,,,,,,,,,,,,,,,,,,,,,,,,,,,,,,,,06,00,Dutch,A2,True,False,True,False,False,True,True,True,True,True,True,True,No,2,No,No,No,No,2020_Jul_10_1426,nibs_stage_1,3.2.3,60.01963303960093,
2,0,2,0,2,0,2,0,,,,,,,,,,,,,,,,,,,,,,136.2681529521942,136.2681529521942,136.25246002674103,138.2515368461609,137.6515825033188,None,141.0517413854599,None,142.45184638500214,152.45236086845398,152.85229947566987,153.85243391990662,154.25245594978333,155.2526068687439,,,,,,,,,,,,,,,,,,,,,,,,,,,,,,,,,,,,,,06,00,Dutch,A2,True,False,True,False,False,True,True,True,True,True,True,True,No,2,No,No,No,No,2020_Jul_10_1426,nibs_stage_1,3.2.3,60.01963303960093,
2,0,2,0,3,0,3,0,,,,,,,,,,,,,,,,,,,,,,158.26990699768066,None,158.2702119588852,160.26935601234436,159.65276243686677,None,163.05292131900788,None,164.4529865026474,174.45343279838562,174.85346438884736,None,176.2536289691925,177.25379180908203,,,,,,,,,,,,,,,,,,,,,,,,,,,,,,,,,,,,,,06,00,Dutch,A2,True,False,True,False,False,True,True,True,True,True,True,True,No,2,No,No,No,No,2020_Jul_10_1426,nibs_stage_1,3.2.3,60.01963303960093,
2,0,2,0,4,0,4,0,,,,,,,,,,,,,,,,,,,,,,180.28722286224365,180.28722286224365,180.27137496471406,182.27052783966064,181.6705672979355,None,185.07075335979462,None,186.47093131542206,196.47134685516357,196.87139036655427,None,198.27145886421204,199.2715048789978,,,,,,,,,,,,,,,,,,,,,,,,,,,,,,,,,,,,,,06,00,Dutch,A2,True,False,True,False,False,True,True,True,True,True,True,True,No,2,No,No,No,No,2020_Jul_10_1426,nibs_stage_1,3.2.3,60.01963303960093,
2,0,2,0,5,0,5,0,,,,,,,,,,,,,,,,,,,,,,202.28887486457825,None,202.28927686214448,204.28874683380127,203.6720752954483,None,207.0721144914627,None,208.47222735881806,218.47297286987305,218.87293651103974,None,220.27282094955444,221.27290081977844,,,,,,,,,,,,,,,,,,,,,,,,,,,,,,,,,,,,,,06,00,Dutch,A2,True,False,True,False,False,True,True,True,True,True,True,True,No,2,No,No,No,No,2020_Jul_10_1426,nibs_stage_1,3.2.3,60.01963303960093,
2,0,2,0,6,0,6,0,,,,,,,,,,,,,,,,,,,,,,224.30639386177063,224.30639386177063,224.2905838727951,226.2900140285492,225.68982436656952,None,229.09000446796418,None,230.49008634090424,240.49061679840088,240.89050748348237,None,242.29065895080566,243.29087495803833,,,,,,,,,,,,,,,,,,,,,,,,,,,,,,,,,,,,,,06,00,Dutch,A2,True,False,True,False,False,True,True,True,True,True,True,True,No,2,No,No,No,No,2020_Jul_10_1426,nibs_stage_1,3.2.3,60.01963303960093,
2,0,2,0,7,0,7,0,,,,,,,,,,,,,,,,,,,,,,246.3078978061676,None,246.3083949327469,248.30760097503662,247.69101932048798,250.69114589691162,251.09112932682038,252.09117984771729,252.4912173986435,262.4917209148407,262.891668343544,None,264.29180884361267,265.2920479774475,,,,,,,,,,,,,,,,,,,,,,,,,,,,,,,,,,,,,,06,00,Dutch,A2,True,False,True,False,False,True,True,True,True,True,True,True,No,2,No,No,No,No,2020_Jul_10_1426,nibs_stage_1,3.2.3,60.01963303960093,
2,0,2,0,8,0,8,0,,,,,,,,,,,,,,,,,,,,,,268.3253757953644,268.3253757953644,268.3095829725265,270.3087818622589,269.70884039402006,272.7089638710022,273.1089635133743,None,274.50904538631437,284.5094769001007,284.9096434354782,None,286.3097038269043,287.3097538948059,,,,,,,,,,,,,,,,,,,,,,,,,,,,,,,,,,,,,,06,00,Dutch,A2,True,False,True,False,False,True,True,True,True,True,True,True,No,2,No,No,No,No,2020_Jul_10_1426,nibs_stage_1,3.2.3,60.01963303960093,
2,0,2,0,9,0,9,0,,,,,,,,,,,,,,,,,,,,,,290.32688999176025,None,290.32780983448026,292.3432459831238,291.70995738506315,294.71022486686707,295.1101475000381,296.11022186279297,296.510263466835,306.5106530189514,306.9107523202896,None,308.31083393096924,309.310889005661,,,,,,,,,,,,,,,,,,,,,,,,,,,,,,,,,,,,,,06,00,Dutch,A2,True,False,True,False,False,True,True,True,True,True,True,True,No,2,No,No,No,No,2020_Jul_10_1426,nibs_stage_1,3.2.3,60.01963303960093,
2,0,2,0,10,0,10,0,,,,,,,,,,,,,,,,,,,,,,312.3442199230194,312.3442199230194,312.3286569356918,314.32757592201233,313.7276354074478,None,317.12774231433866,318.12786889076233,318.5278904676437,328.52831387519836,328.92833545207975,None,330.3285038471222,331.32848501205444,,,,,,,,,,,,,,,,,,,,,,,,,,,,,,,,,,,,,,06,00,Dutch,A2,True,False,True,False,False,True,True,True,True,True,True,True,No,2,No,No,No,No,2020_Jul_10_1426,nibs_stage_1,3.2.3,60.01963303960093,
2,0,2,0,11,0,11,0,,,,,,,,,,,,,,,,,,,,,,334.3458938598633,None,334.34626891613004,336.34555101394653,335.72899343967435,None,339.12912037372587,340.1290957927704,340.5291145086288,350.52987480163574,350.9298134088516,None,352.32983684539795,353.3299000263214,,,,,,,,,,,,,,,,,,,,,,,,,,,,,,,,,,,,,,06,00,Dutch,A2,True,False,True,False,False,True,True,True,True,True,True,True,No,2,No,No,No,No,2020_Jul_10_1426,nibs_stage_1,3.2.3,60.01963303960093,
2,0,2,0,12,0,12,0,,,,,,,,,,,,,,,,,,,,,,356.3631520271301,356.3631520271301,356.34767892360685,358.36328387260437,357.7465675115585,360.7466299533844,361.1466503381729,362.14678597450256,362.54680540561674,372.5475459098816,372.94728043079374,None,374.347443819046,375.3474898338318,,,,,,,,,,,,,,,,,,,,,,,,,,,,,,,,,,,,,,06,00,Dutch,A2,True,False,True,False,False,True,True,True,True,True,True,True,No,2,No,No,No,No,2020_Jul_10_1426,nibs_stage_1,3.2.3,60.01963303960093,
2,0,2,0,13,0,13,0,,,,,,,,,,,,,,,,,,,,,,378.3813989162445,None,378.3651879072189,380.36457991600037,379.74797036647794,None,383.1481173276901,384.1481649875641,384.5483834981918,394.54861879348755,394.9486713647842,395.9487798213959,396.34879779815674,397.3489899635315,,,,,,,,,,,,,,,,,,,,,,,,,,,,,,,,,,,,,,06,00,Dutch,A2,True,False,True,False,False,True,True,True,True,True,True,True,No,2,No,No,No,No,2020_Jul_10_1426,nibs_stage_1,3.2.3,60.01963303960093,
2,0,2,0,14,0,14,0,,,,,,,,,,,,,,,,,,,,,,400.39892292022705,None,400.38327100276945,402.3821609020233,401.7655635118484,None,405.16573240756986,406.16586685180664,406.5659194231033,416.56628489494324,416.9664893388748,None,418.36641097068787,419.36648297309875,,,,,,,,,,,,,,,,,,,,,,,,,,,,,,,,,,,,,,06,00,Dutch,A2,True,False,True,False,False,True,True,True,True,True,True,True,No,2,No,No,No,No,2020_Jul_10_1426,nibs_stage_1,3.2.3,60.01963303960093,
2,0,2,0,,,,,0,0,0,0,0,0,0,0,,,,,,,,,,,,,,,,,,,,,,,,,,,,629.8445408344269,None," - Task: Keep seated and relaxed with either      
             opening or closing eyes                  
 - Beep sound with decreasing pitch: Block finish 
",629.8445408344269,None,629.8288233757019,None,"Please keep relaxed and close your eyes.
",652.8623168468475,832.8718979358673,836.2237169742584,None,853.9398019313812,893.9582068920135," - Task: Listen to the question& Speak out answer 
 - Melodious beep sound: Trial start              
 - Silent sound (blank): censored word            
 - Beep sound with increasing pitch: Rec. start   
 - Beep sound with decreasing pitch: Rec. finish  
",853.9398019313812,893.9582068920135,853.9242127180099,None,893.3250169754028,None,Listen to the question and speak out your answer!,898.9587759971619,None,898.9432457208633,900.9587008953094,Bitte zahlen Sie an Kasse Nummer Zwei.,zahlen,900.3254463911056,None,903.2255413770675,None,915.5259545087814,916.5259699821472,916.9261169433594,917.9261198043823,./data/Subject_06/Session_00/Exp_data/2020_Jul_10_1426/rec_QA_run_02_block_000_trial_000.wav,06,00,Dutch,A2,True,False,True,False,False,True,True,True,True,True,True,True,No,2,No,No,No,No,2020_Jul_10_1426,nibs_stage_1,3.2.3,60.01963303960093,
2,0,2,0,,,,,0,0,0,0,1,0,1,0,,,,,,,,,,,,,,,,,,,,,,,,,,,,,,,,,,,,,,,,,,,,,,,,,Listen to the question and speak out your answer!,920.0101108551025,None,919.9941008806228,922.0096750259399,Bitte gib mir ein Stück Kuchen und eine Schale mit Obst.,gib,921.3763184785843,None,925.1431803941726,None,936.5770383119583,None,937.9772789478302,938.9771659374237,./data/Subject_06/Session_00/Exp_data/2020_Jul_10_1426/rec_QA_run_02_block_000_trial_001.wav,06,00,Dutch,A2,True,False,True,False,False,True,True,True,True,True,True,True,No,2,No,No,No,No,2020_Jul_10_1426,nibs_stage_1,3.2.3,60.01963303960093,
2,0,2,0,,,,,0,0,0,0,2,0,2,0,,,,,,,,,,,,,,,,,,,,,,,,,,,,,,,,,,,,,,,,,,,,,,,,,Listen to the question and speak out your answer!,941.0445799827576,None,941.0283403873443,943.0274579524994,"Es ist zu windig, können Sie bitte das Fenster schließen.",schließen,942.4273543596267,945.7276058197021,946.1276474237442,None,957.6284613847732,None,959.0286009311676,960.0284979343414,./data/Subject_06/Session_00/Exp_data/2020_Jul_10_1426/rec_QA_run_02_block_000_trial_002.wav,06,00,Dutch,A2,True,False,True,False,False,True,True,True,True,True,True,True,No,2,No,No,No,No,2020_Jul_10_1426,nibs_stage_1,3.2.3,60.01963303960093,
2,0,2,0,,,,,0,0,0,0,3,0,3,0,,,,,,,,,,,,,,,,,,,,,,,,,,,,,,,,,,,,,,,,,,,,,,,,,Listen to the question and speak out your answer!,962.061959028244,None,962.0462329626083,964.0451610088348,Morgen ändert sich das Wetter ganz bestimmt.,bestimmt,963.4452064275741,965.8786709308624,966.2787072896957,None,978.64625146389,None,980.0464949607849,981.0462598800659,./data/Subject_06/Session_00/Exp_data/2020_Jul_10_1426/rec_QA_run_02_block_000_trial_003.wav,06,00,Dutch,A2,True,False,True,False,False,True,True,True,True,True,True,True,No,2,No,No,No,No,2020_Jul_10_1426,nibs_stage_1,3.2.3,60.01963303960093,
2,0,2,0,,,,,0,0,0,0,4,0,4,0,,,,,,,,,,,,,,,,,,,,,,,,,,,,,,,,,,,,,,,,,,,,,,,,,Listen to the question and speak out your answer!,983.1131358146667,None,983.0973459005355,985.0965750217438,"Ich habe keine Ahnung, wie viel du für das Auto gezahlt hast, aber lass mich mal raten.",raten,984.4800503492355,989.6633868217468,990.063207411766,None,999.6806693315506,1000.6808848381042,1001.0808928012848,1002.0807988643646,./data/Subject_06/Session_00/Exp_data/2020_Jul_10_1426/rec_QA_run_02_block_000_trial_004.wav,06,00,Dutch,A2,True,False,True,False,False,True,True,True,True,True,True,True,No,2,No,No,No,No,2020_Jul_10_1426,nibs_stage_1,3.2.3,60.01963303960093,
2,0,2,0,,,,,0,0,0,0,5,0,5,0,,,,,,,,,,,,,,,,,,,,,,,,,,,,,,,,,,,,,,,,,,,,,,,,,Listen to the question and speak out your answer!,1004.1473958492279,None,1004.1318803310394,1006.1474688053131,Sam hat gerade das Abitur bestanden und wird sich für die Universität Wien bewerben. ,bewerben,1005.5312342882156,1010.6478848457336,1011.0479994058609,None,1020.7148285150528,None,1022.1149709224701,1023.1151988506317,./data/Subject_06/Session_00/Exp_data/2020_Jul_10_1426/rec_QA_run_02_block_000_trial_005.wav,06,00,Dutch,A2,True,False,True,False,False,True,True,True,True,True,True,True,No,2,No,No,No,No,2020_Jul_10_1426,nibs_stage_1,3.2.3,60.01963303960093,
2,0,2,0,,,,,0,0,0,0,6,0,6,0,,,,,,,,,,,,,,,,,,,,,,,,,,,,,,,,,,,,,,,,,,,,,,,,,Listen to the question and speak out your answer!,1025.1818828582764,None,1025.166087436676,1027.16517496109,Man kann oft aus Fehlern lernen.,lernen,1026.548579478264,1028.4653029441833,1028.8819995164872,None,1041.7492683172227,1042.749382019043,1043.1494100093842,1044.1494607925415,./data/Subject_06/Session_00/Exp_data/2020_Jul_10_1426/rec_QA_run_02_block_000_trial_006.wav,06,00,Dutch,A2,True,False,True,False,False,True,True,True,True,True,True,True,No,2,No,No,No,No,2020_Jul_10_1426,nibs_stage_1,3.2.3,60.01963303960093,
2,0,2,0,,,,,0,0,0,0,7,0,7,0,,,,,,,,,,,,,,,,,,,,,,,,,,,,,,,,,,,,,,,,,,,,,,,,,Listen to the question and speak out your answer!,1046.2163228988647,None,1046.2005484580995,1048.1996159553528,Vater trinkt morgens eine Tasse Kaffee.,trinkt,1047.5829994916917,None,1050.5837364435197,None,1062.7837424516679,None,1064.2005248069763,1065.2005379199982,./data/Subject_06/Session_00/Exp_data/2020_Jul_10_1426/rec_QA_run_02_block_000_trial_007.wav,06,00,Dutch,A2,True,False,True,False,False,True,True,True,True,True,True,True,No,2,No,No,No,No,2020_Jul_10_1426,nibs_stage_1,3.2.3,60.01963303960093,
2,0,2,0,,,,,0,0,0,0,8,0,8,0,,,,,,,,,,,,,,,,,,,,,,,,,,,,,,,,,,,,,,,,,,,,,,,,,Listen to the question and speak out your answer!,1067.2676949501038,None,1067.2516239404679,1069.2508738040924,"Es gibt viele Vorteile, wenn man die öffentlichen Verkehrsmittel benutzt.",benutzt,1068.6341665029527,1072.8844389915466,1073.2676735162736,None,1083.8350653886796,None,1085.234966993332,1086.235013961792,./data/Subject_06/Session_00/Exp_data/2020_Jul_10_1426/rec_QA_run_02_block_000_trial_008.wav,06,00,Dutch,A2,True,False,True,False,False,True,True,True,True,True,True,True,No,2,No,No,No,No,2020_Jul_10_1426,nibs_stage_1,3.2.3,60.01963303960093,
2,0,2,0,,,,,0,0,0,0,9,0,9,0,,,,,,,,,,,,,,,,,,,,,,,,,,,,,,,,,,,,,,,,,,,,,,,,,Listen to the question and speak out your answer!,1088.2850949764252,None,1088.2694244861605,1090.2685627937317,"Da er sehr reich ist, hat der Club ihn als Mitglied aufgenommen. ",aufgenommen,1089.6518023252488,1093.3523240089417,1093.752259516716,None,1104.8528983831407,None,1106.2528879642487,1107.2530269622803,./data/Subject_06/Session_00/Exp_data/2020_Jul_10_1426/rec_QA_run_02_block_000_trial_009.wav,06,00,Dutch,A2,True,False,True,False,False,True,True,True,True,True,True,True,No,2,No,No,No,No,2020_Jul_10_1426,nibs_stage_1,3.2.3,60.01963303960093,
2,0,2,0,,,,,0,0,0,0,10,0,10,0,,,,,,,,,,,,,,,,,,,,,,,,,,,,,,,,,,,,,,,,,,,,,,,,,Listen to the question and speak out your answer!,1109.3365318775177,None,1109.320798945427,1111.336814880371,"Die USA gewannen den Zweiten Weltkrieg, nachdem sie mehrere Jahre lang gekämpft hatten.",gewannen,1110.703200364113,None,1116.5367784738542,None,1125.9040174722672,None,1127.3040947914124,1128.3041498661041,./data/Subject_06/Session_00/Exp_data/2020_Jul_10_1426/rec_QA_run_02_block_000_trial_010.wav,06,00,Dutch,A2,True,False,True,False,False,True,True,True,True,True,True,True,No,2,No,No,No,No,2020_Jul_10_1426,nibs_stage_1,3.2.3,60.01963303960093,
2,0,2,0,,,,,0,0,0,0,11,0,11,0,,,,,,,,,,,,,,,,,,,,,,,,,,,,,,,,,,,,,,,,,,,,,,,,,Listen to the question and speak out your answer!,1130.388193845749,None,1130.3719979047776,1132.3712379932404,Er hat meine Sympathie gewonnen.,gewonnen,1131.754316353798,1133.6210658550262,1134.0377683877946,None,1146.9551303625108,1147.955353975296,1148.3551049232483,1149.355230808258,./data/Subject_06/Session_00/Exp_data/2020_Jul_10_1426/rec_QA_run_02_block_000_trial_011.wav,06,00,Dutch,A2,True,False,True,False,False,True,True,True,True,True,True,True,No,2,No,No,No,No,2020_Jul_10_1426,nibs_stage_1,3.2.3,60.01963303960093,
2,0,2,0,,,,,0,0,0,0,12,0,12,0,,,,,,,,,,,,,,,,,,,,,,,,,,,,,,,,,,,,,,,,,,,,,,,,,Listen to the question and speak out your answer!,1151.422031879425,None,1151.4063113212587,1153.405476808548,"Mutters Einkäufe sind so schwer, deshalb bittet sie Jon, die Tasche zu tragen.",tragen,1152.7886944055558,None,1158.022370362282,None,1167.9895994901658,None,1169.389578819275,1170.3896989822388,./data/Subject_06/Session_00/Exp_data/2020_Jul_10_1426/rec_QA_run_02_block_000_trial_012.wav,06,00,Dutch,A2,True,False,True,False,False,True,True,True,True,True,True,True,No,2,No,No,No,No,2020_Jul_10_1426,nibs_stage_1,3.2.3,60.01963303960093,
2,0,2,0,,,,,0,0,0,0,13,0,13,0,,,,,,,,,,,,,,,,,,,,,,,,,,,,,,,,,,,,,,,,,,,,,,,,,Listen to the question and speak out your answer!,1172.4564409255981,None,1172.4407754421236,1174.4896748065948,"Bitten aufpassen, zu viel Zucker schadet der Gesundheit.",aufpassen,1173.8231404066087,1177.223070859909,1177.6065232992173,None,1189.0404393911363,None,1190.457181930542,None,./data/Subject_06/Session_00/Exp_data/2020_Jul_10_1426/rec_QA_run_02_block_000_trial_013.wav,06,00,Dutch,A2,True,False,True,False,False,True,True,True,True,True,True,True,No,2,No,No,No,No,2020_Jul_10_1426,nibs_stage_1,3.2.3,60.01963303960093,
2,0,2,0,,,,,0,0,0,0,14,0,14,0,,,,,,,,,,,,,,,,,,,,,,,,,,,,,,,,,,,,,,,,,,,,,,,,,Listen to the question and speak out your answer!,1193.5082190036774,None,1193.4916553974153,1195.5074589252472,"Florian habe so lange Beine, deshalb trage er nur lange Hosen.",trage,1194.8907222986222,None,1199.5576813459397,None,1210.09156229496,None,1211.5082988739014,None,./data/Subject_06/Session_00/Exp_data/2020_Jul_10_1426/rec_QA_run_02_block_000_trial_014.wav,06,00,Dutch,A2,True,False,True,False,False,True,True,True,True,True,True,True,No,2,No,No,No,No,2020_Jul_10_1426,nibs_stage_1,3.2.3,60.01963303960093,
2,0,2,0,,,,,0,0,0,0,15,0,15,0,,,,,,,,,,,,,,,,,,,,,,,,,,,,,,,,,,,,,,,,,,,,,,,,,Listen to the question and speak out your answer!,1214.5417549610138,None,1214.5261488199235,1216.541990995407,Das Eingreifen des Lehrers beendete den Streit.,beendete,1215.9252104997636,1219.0420248508453,1219.4253883600236,None,1231.1260223627091,None,1232.5427680015564,None,./data/Subject_06/Session_00/Exp_data/2020_Jul_10_1426/rec_QA_run_02_block_000_trial_015.wav,06,00,Dutch,A2,True,False,True,False,False,True,True,True,True,True,True,True,No,2,No,No,No,No,2020_Jul_10_1426,nibs_stage_1,3.2.3,60.01963303960093,
2,0,2,0,,,,,0,0,0,0,16,0,16,0,,,,,,,,,,,,,,,,,,,,,,,,,,,,,,,,,,,,,,,,,,,,,,,,,Listen to the question and speak out your answer!,1235.5937328338623,None,1235.5772083282473,1237.593050956726,"In der Therapie lernte er, mit Angst und Stress umzugehen.",umzugehen,1236.9763174295426,None,1240.8431883096696,None,1252.1771054506303,None,1253.59379196167,None,./data/Subject_06/Session_00/Exp_data/2020_Jul_10_1426/rec_QA_run_02_block_000_trial_016.wav,06,00,Dutch,A2,True,False,True,False,False,True,True,True,True,True,True,True,No,2,No,No,No,No,2020_Jul_10_1426,nibs_stage_1,3.2.3,60.01963303960093,
2,0,2,0,,,,,0,0,0,0,17,0,17,0,,,,,,,,,,,,,,,,,,,,,,,,,,,,,,,,,,,,,,,,,,,,,,,,,Listen to the question and speak out your answer!,1256.661631822586,None,1256.6450038671494,1258.6608889102936,"Wenn man seine Zähne putzt, muss er die Zahnpasta auf Zahnbürste pressen.",putzt,1258.04410340786,1262.3609879016876,1262.7443504571916,1263.76109790802,1273.2115655183793,1274.228283882141,1274.6283128261566,1275.6617078781128,./data/Subject_06/Session_00/Exp_data/2020_Jul_10_1426/rec_QA_run_02_block_000_trial_017.wav,06,00,Dutch,A2,True,False,True,False,False,True,True,True,True,True,True,True,No,2,No,No,No,No,2020_Jul_10_1426,nibs_stage_1,3.2.3,60.01963303960093,
2,0,2,0,,,,,0,0,0,0,18,0,18,0,,,,,,,,,,,,,,,,,,,,,,,,,,,,,,,,,,,,,,,,,,,,,,,,,Listen to the question and speak out your answer!,1277.7291259765625,None,1277.6961184024813,1279.7285108566284,Der Hotelier buchte zwei Übernachtungen für uns,buchte,1279.111846470833,1282.4287099838257,1282.8120835065843,None,1294.3126094579698,1295.329419851303,1295.7295320034027,None,./data/Subject_06/Session_00/Exp_data/2020_Jul_10_1426/rec_QA_run_02_block_000_trial_018.wav,06,00,Dutch,A2,True,False,True,False,False,True,True,True,True,True,True,True,No,2,No,No,No,No,2020_Jul_10_1426,nibs_stage_1,3.2.3,60.01963303960093,
2,0,2,0,,,,,0,0,0,0,19,0,19,0,,,,,,,,,,,,,,,,,,,,,,,,,,,,,,,,,,,,,,,,,,,,,,,,,Listen to the question and speak out your answer!,1298.7630188465118,None,1298.7305675029756,1300.7630219459534,"Es ist vorstellbar, dass er diese schwierige Prüfung nicht bestehen kann. ",bestehen,1300.1463344335557,None,1304.679921412468,None,1315.3471224546433,None,1316.7639169692993,None,./data/Subject_06/Session_00/Exp_data/2020_Jul_10_1426/rec_QA_run_02_block_000_trial_019.wav,06,00,Dutch,A2,True,False,True,False,False,True,True,True,True,True,True,True,No,2,No,No,No,No,2020_Jul_10_1426,nibs_stage_1,3.2.3,60.01963303960093,
2,0,2,0,,,,,0,0,0,0,20,0,20,0,,,,,,,,,,,,,,,,,,,,,,,,,,,,,,,,,,,,,,,,,,,,,,,,,Listen to the question and speak out your answer!,1319.7977259159088,None,1319.7816630125046,1321.7974548339844,Was bedeutet diese Abkürzung?,bedeutet,1321.180739426613,1323.1976068019867,1323.5809624433518,None,1336.3816664457322,1337.3983778953552,1337.798413991928,None,./data/Subject_06/Session_00/Exp_data/2020_Jul_10_1426/rec_QA_run_02_block_000_trial_020.wav,06,00,Dutch,A2,True,False,True,False,False,True,True,True,True,True,True,True,No,2,No,No,No,No,2020_Jul_10_1426,nibs_stage_1,3.2.3,60.01963303960093,
2,0,2,0,,,,,0,0,0,0,21,0,21,0,,,,,,,,,,,,,,,,,,,,,,,,,,,,,,,,,,,,,,,,,,,,,,,,,Listen to the question and speak out your answer!,1340.831820011139,None,1340.799491453171,1342.8319900035858,Er wurde zum Leiter der Abteilung befördert.,befördert,1342.215309405327,None,1345.2487864732743,1346.2655129432678,1357.416171336174,None,1358.8328440189362,None,./data/Subject_06/Session_00/Exp_data/2020_Jul_10_1426/rec_QA_run_02_block_000_trial_021.wav,06,00,Dutch,A2,True,False,True,False,False,True,True,True,True,True,True,True,No,2,No,No,No,No,2020_Jul_10_1426,nibs_stage_1,3.2.3,60.01963303960093,
2,0,2,0,,,,,0,0,0,0,22,0,22,0,,,,,,,,,,,,,,,,,,,,,,,,,,,,,,,,,,,,,,,,,,,,,,,,,Listen to the question and speak out your answer!,1361.8499519824982,None,1361.833984422684,1363.8497869968414,"Das Thema interessierte sie, daher hörte sie genau zu.",interessierte,1363.2330854177476,None,1367.2999425172807,None,1378.4338364839555,None,1379.8505458831787,None,./data/Subject_06/Session_00/Exp_data/2020_Jul_10_1426/rec_QA_run_02_block_000_trial_022.wav,06,00,Dutch,A2,True,False,True,False,False,True,True,True,True,True,True,True,No,2,No,No,No,No,2020_Jul_10_1426,nibs_stage_1,3.2.3,60.01963303960093,
2,0,2,0,,,,,0,0,0,0,23,0,23,0,,,,,,,,,,,,,,,,,,,,,,,,,,,,,,,,,,,,,,,,,,,,,,,,,Listen to the question and speak out your answer!,1382.9175069332123,None,1382.9016860246659,1384.9175729751587,Die Kellnerin schenkte den Kunden Wein nach.,schenkte,1384.3007865190507,None,1387.4009473562242,1388.4176468849182,1399.5015814542771,None,1400.918329000473,None,./data/Subject_06/Session_00/Exp_data/2020_Jul_10_1426/rec_QA_run_02_block_000_trial_023.wav,06,00,Dutch,A2,True,False,True,False,False,True,True,True,True,True,True,True,No,2,No,No,No,No,2020_Jul_10_1426,nibs_stage_1,3.2.3,60.01963303960093,
2,0,2,0,,,,,0,0,0,0,24,0,24,0,,,,,,,,,,,,,,,,,,,,,,,,,,,,,,,,,,,,,,,,,,,,,,,,,Listen to the question and speak out your answer!,1403.9854760169983,None,1403.9694619894028,1405.9853568077087,"Er wird seinem Traum folgen, egal was die Leute reden.",reden,1405.3685603380204,1408.8190128803253,1409.16874935627,1410.185487985611,1420.569369339943,None,1421.9861948490143,None,./data/Subject_06/Session_00/Exp_data/2020_Jul_10_1426/rec_QA_run_02_block_000_trial_024.wav,06,00,Dutch,A2,True,False,True,False,False,True,True,True,True,True,True,True,No,2,No,No,No,No,2020_Jul_10_1426,nibs_stage_1,3.2.3,60.01963303960093,
2,0,2,0,,,,,0,0,0,0,,,,,,,,,,,,,,,,,,,,,,,,,,,,,,,,,,,,,,,,,,1426.0030789375305,None,,,,,,,,,,,,,,,,,,,,,,,,,,06,00,Dutch,A2,True,False,True,False,False,True,True,True,True,True,True,True,No,2,No,No,No,No,2020_Jul_10_1426,nibs_stage_1,3.2.3,60.01963303960093,
2,0,2,0,,,,,1,0,1,0,0,0,0,0,,,,,,,,,,,,,,,,,,,,,,,,,,,,,,,,,,,,,,,,,,,,,,,,,Listen to the question and speak out your answer!,1448.621433019638,None,1448.6056146860124,1450.654441833496,Um Mitternacht schließt das Lokal.,schließt,1450.0042553186418,None,1452.5376403570176,None,1465.2050774335862,1466.2217819690704,1466.6218829154968,None,./data/Subject_06/Session_00/Exp_data/2020_Jul_10_1426/rec_QA_run_02_block_001_trial_000.wav,06,00,Dutch,A2,True,False,True,False,False,True,True,True,True,True,True,True,No,2,No,No,No,No,2020_Jul_10_1426,nibs_stage_1,3.2.3,60.01963303960093,
2,0,2,0,,,,,1,0,1,0,1,0,1,0,,,,,,,,,,,,,,,,,,,,,,,,,,,,,,,,,,,,,,,,,,,,,,,,,Listen to the question and speak out your answer!,1469.6886529922485,None,1469.656253385544,1471.6887729167938,Die sieben kleinen Äpfel sollen ungefähr zwei Kilo wiegen.,wiegen,1471.072008395195,None,1475.105580353737,None,1486.2728543519975,None,1487.6895728111267,None,./data/Subject_06/Session_00/Exp_data/2020_Jul_10_1426/rec_QA_run_02_block_001_trial_001.wav,06,00,Dutch,A2,True,False,True,False,False,True,True,True,True,True,True,True,No,2,No,No,No,No,2020_Jul_10_1426,nibs_stage_1,3.2.3,60.01963303960093,
2,0,2,0,,,,,1,0,1,0,2,0,2,0,,,,,,,,,,,,,,,,,,,,,,,,,,,,,,,,,,,,,,,,,,,,,,,,,Listen to the question and speak out your answer!,1490.723382949829,None,1490.6906984329225,1492.7231550216675,Ich nehme zwei Bücher aus dem Regal.,nehme,1492.1064744234086,1494.4899280071259,1494.873291516304,None,1507.3073075056077,None,1508.7241048812866,None,./data/Subject_06/Session_00/Exp_data/2020_Jul_10_1426/rec_QA_run_02_block_001_trial_002.wav,06,00,Dutch,A2,True,False,True,False,False,True,True,True,True,True,True,True,No,2,No,No,No,No,2020_Jul_10_1426,nibs_stage_1,3.2.3,60.01963303960093,
2,0,2,0,,,,,1,0,1,0,3,0,3,0,,,,,,,,,,,,,,,,,,,,,,,,,,,,,,,,,,,,,,,,,,,,,,,,,Listen to the question and speak out your answer!,1511.757619857788,None,1511.7251773357393,1513.757644891739,"Der Klima Schutz soll verhindern, dass es auf der Erde immer wärmer wird.",verhindern,1513.1409304380418,1517.2911529541016,1517.6745093107224,None,1528.3418514966966,None,1529.758488893509,None,./data/Subject_06/Session_00/Exp_data/2020_Jul_10_1426/rec_QA_run_02_block_001_trial_003.wav,06,00,Dutch,A2,True,False,True,False,False,True,True,True,True,True,True,True,No,2,No,No,No,No,2020_Jul_10_1426,nibs_stage_1,3.2.3,60.01963303960093,
2,0,2,0,,,,,1,0,1,0,4,0,4,0,,,,,,,,,,,,,,,,,,,,,,,,,,,,,,,,,,,,,,,,,,,,,,,,,Listen to the question and speak out your answer!,1532.7762348651886,None,1532.7595785140993,1534.7754049301147,Meine dicke Katze muss abnehmen.,abnehmen,1534.1587274312974,None,1536.4921474695207,1537.5088908672333,1549.3429084062577,1550.3595860004425,1550.7595989704132,None,./data/Subject_06/Session_00/Exp_data/2020_Jul_10_1426/rec_QA_run_02_block_001_trial_004.wav,06,00,Dutch,A2,True,False,True,False,False,True,True,True,True,True,True,True,No,2,No,No,No,No,2020_Jul_10_1426,nibs_stage_1,3.2.3,60.01963303960093,
2,0,2,0,,,,,1,0,1,0,5,0,5,0,,,,,,,,,,,,,,,,,,,,,,,,,,,,,,,,,,,,,,,,,,,,,,,,,Listen to the question and speak out your answer!,1553.8267788887024,None,1553.810752940178,1555.8264439105988,Ich habe das Bild an die Wand gehängt. ,gehängt,1555.209846520424,None,1557.7099504709245,None,1570.4106364488603,None,1571.8273680210114,None,./data/Subject_06/Session_00/Exp_data/2020_Jul_10_1426/rec_QA_run_02_block_001_trial_005.wav,06,00,Dutch,A2,True,False,True,False,False,True,True,True,True,True,True,True,No,2,No,No,No,No,2020_Jul_10_1426,nibs_stage_1,3.2.3,60.01963303960093,
2,0,2,0,,,,,1,0,1,0,6,0,6,0,,,,,,,,,,,,,,,,,,,,,,,,,,,,,,,,,,,,,,,,,,,,,,,,,Listen to the question and speak out your answer!,1574.8776059150696,None,1574.8618324279787,1576.8776559829712,Salz und Pfeffer machten das Steak genießbar.,machten,1576.260927462578,1579.2777678966522,1579.661125445366,1580.6778569221497,1591.4617684125901,None,1592.8784918785095,None,./data/Subject_06/Session_00/Exp_data/2020_Jul_10_1426/rec_QA_run_02_block_001_trial_006.wav,06,00,Dutch,A2,True,False,True,False,False,True,True,True,True,True,True,True,No,2,No,No,No,No,2020_Jul_10_1426,nibs_stage_1,3.2.3,60.01963303960093,
2,0,2,0,,,,,1,0,1,0,7,0,7,0,,,,,,,,,,,,,,,,,,,,,,,,,,,,,,,,,,,,,,,,,,,,,,,,,Listen to the question and speak out your answer!,1595.9456210136414,None,1595.9296270132065,1597.9454379081726,"Hans arbeitet in einer Schule, er ist der Direktor.",arbeitet,1597.2953973054887,None,1600.895581507683,None,1612.496176505089,None,1613.9129638671875,None,./data/Subject_06/Session_00/Exp_data/2020_Jul_10_1426/rec_QA_run_02_block_001_trial_007.wav,06,00,Dutch,A2,True,False,True,False,False,True,True,True,True,True,True,True,No,2,No,No,No,No,2020_Jul_10_1426,nibs_stage_1,3.2.3,60.01963303960093,
2,0,2,0,,,,,1,0,1,0,8,0,8,0,,,,,,,,,,,,,,,,,,,,,,,,,,,,,,,,,,,,,,,,,,,,,,,,,Listen to the question and speak out your answer!,1616.996500968933,None,1616.964202952385,1618.9966177940369,"Die Firma hat einen Fachmann hinzugezogen, um das Netzwerk zu reparieren.",reparieren,1618.3798704385758,1623.1634509563446,1623.5468793153764,None,1633.5807383298875,1634.597464799881,1634.9974718093872,None,./data/Subject_06/Session_00/Exp_data/2020_Jul_10_1426/rec_QA_run_02_block_001_trial_008.wav,06,00,Dutch,A2,True,False,True,False,False,True,True,True,True,True,True,True,No,2,No,No,No,No,2020_Jul_10_1426,nibs_stage_1,3.2.3,60.01963303960093,
2,0,2,0,,,,,1,0,1,0,9,0,9,0,,,,,,,,,,,,,,,,,,,,,,,,,,,,,,,,,,,,,,,,,,,,,,,,,Listen to the question and speak out your answer!,1638.0309917926788,None,1637.9986174583437,1640.0309898853302,"Er lief so schnell, dass ich kaum mit ihm Schritt halten konnte.",lief,1639.4143963098527,1642.8978748321533,1643.281159424782,None,1654.6151514291764,None,1656.0319378376007,None,./data/Subject_06/Session_00/Exp_data/2020_Jul_10_1426/rec_QA_run_02_block_001_trial_009.wav,06,00,Dutch,A2,True,False,True,False,False,True,True,True,True,True,True,True,No,2,No,No,No,No,2020_Jul_10_1426,nibs_stage_1,3.2.3,60.01963303960093,
2,0,2,0,,,,,1,0,1,0,10,0,10,0,,,,,,,,,,,,,,,,,,,,,,,,,,,,,,,,,,,,,,,,,,,,,,,,,Listen to the question and speak out your answer!,1659.066624879837,None,1659.03303437233,1661.0655028820038,"Keine Sorge, du wirst für diesen Fehler nicht die Schuld tragen.",tragen,1660.4488163232804,1664.0990009307861,1664.4824013948441,None,1675.649545454979,1676.6662738323212,1677.0662989616394,None,./data/Subject_06/Session_00/Exp_data/2020_Jul_10_1426/rec_QA_run_02_block_001_trial_010.wav,06,00,Dutch,A2,True,False,True,False,False,True,True,True,True,True,True,True,No,2,No,No,No,No,2020_Jul_10_1426,nibs_stage_1,3.2.3,60.01963303960093,
2,0,2,0,,,,,1,0,1,0,11,0,11,0,,,,,,,,,,,,,,,,,,,,,,,,,,,,,,,,,,,,,,,,,,,,,,,,,Listen to the question and speak out your answer!,1680.0998599529266,None,1680.0674124240877,1682.0999557971954,"Wie lange benötigt die Erde, um die Sonne zu umrunden?",benötigt,1681.4831924676896,1685.0334658622742,1685.4167204141618,None,1696.6840064764024,None,1698.1007328033447,None,./data/Subject_06/Session_00/Exp_data/2020_Jul_10_1426/rec_QA_run_02_block_001_trial_011.wav,06,00,Dutch,A2,True,False,True,False,False,True,True,True,True,True,True,True,No,2,No,No,No,No,2020_Jul_10_1426,nibs_stage_1,3.2.3,60.01963303960093,
2,0,2,0,,,,,1,0,1,0,12,0,12,0,,,,,,,,,,,,,,,,,,,,,,,,,,,,,,,,,,,,,,,,,,,,,,,,,Listen to the question and speak out your answer!,1701.1345148086548,None,1701.1018593788149,1703.1343100070953,Antragsteller für ein Visum können online ein Formular ausfüllen.,ausfüllen,1702.517670416832,1706.4015629291534,1706.7845344781877,None,1717.7184703588487,1718.7351648807526,1719.135185956955,None,./data/Subject_06/Session_00/Exp_data/2020_Jul_10_1426/rec_QA_run_02_block_001_trial_012.wav,06,00,Dutch,A2,True,False,True,False,False,True,True,True,True,True,True,True,No,2,No,No,No,No,2020_Jul_10_1426,nibs_stage_1,3.2.3,60.01963303960093,
2,0,2,0,,,,,1,0,1,0,13,0,13,0,,,,,,,,,,,,,,,,,,,,,,,,,,,,,,,,,,,,,,,,,,,,,,,,,Listen to the question and speak out your answer!,1722.152869939804,None,1722.1363344669344,1724.15211892128,Wir leben alle auf der Erde.,leben,1723.5354295015336,None,1725.802210354805,None,1738.7362404108048,None,1740.1529698371887,None,./data/Subject_06/Session_00/Exp_data/2020_Jul_10_1426/rec_QA_run_02_block_001_trial_013.wav,06,00,Dutch,A2,True,False,True,False,False,True,True,True,True,True,True,True,No,2,No,No,No,No,2020_Jul_10_1426,nibs_stage_1,3.2.3,60.01963303960093,
2,0,2,0,,,,,1,0,1,0,14,0,14,0,,,,,,,,,,,,,,,,,,,,,,,,,,,,,,,,,,,,,,,,,,,,,,,,,Listen to the question and speak out your answer!,1743.2201869487762,None,1743.2041910409928,1745.2198119163513,"Er kann zwanzig Zigarattes pro Tag rauchen, was sehr ungesund ist.",rauchen,1744.6031964063645,1748.8534269332886,1749.2367832899095,None,1759.8039953947068,None,1761.2208449840546,None,./data/Subject_06/Session_00/Exp_data/2020_Jul_10_1426/rec_QA_run_02_block_001_trial_014.wav,06,00,Dutch,A2,True,False,True,False,False,True,True,True,True,True,True,True,No,2,No,No,No,No,2020_Jul_10_1426,nibs_stage_1,3.2.3,60.01963303960093,
2,0,2,0,,,,,1,0,1,0,15,0,15,0,,,,,,,,,,,,,,,,,,,,,,,,,,,,,,,,,,,,,,,,,,,,,,,,,Listen to the question and speak out your answer!,1764.2545289993286,None,1764.2385369062424,1766.2546048164368,Vater trägt den großen Rucksack auf dem Rücken.,trägt,1765.6376564741136,None,1769.0044043302537,1770.0211880207062,1780.8384733438493,None,1782.2551848888397,None,./data/Subject_06/Session_00/Exp_data/2020_Jul_10_1426/rec_QA_run_02_block_001_trial_015.wav,06,00,Dutch,A2,True,False,True,False,False,True,True,True,True,True,True,True,No,2,No,No,No,No,2020_Jul_10_1426,nibs_stage_1,3.2.3,60.01963303960093,
2,0,2,0,,,,,1,0,1,0,16,0,16,0,,,,,,,,,,,,,,,,,,,,,,,,,,,,,,,,,,,,,,,,,,,,,,,,,Listen to the question and speak out your answer!,1785.305603981018,None,1785.289659547806,1787.3054490089417,Die Abgase der Benzinmotoren werden die Luft verschmutzen.,verschmutzen,1786.688752436638,None,1790.6555664777757,None,1801.8896053075791,None,1803.3062980175018,None,./data/Subject_06/Session_00/Exp_data/2020_Jul_10_1426/rec_QA_run_02_block_001_trial_016.wav,06,00,Dutch,A2,True,False,True,False,False,True,True,True,True,True,True,True,No,2,No,No,No,No,2020_Jul_10_1426,nibs_stage_1,3.2.3,60.01963303960093,
2,0,2,0,,,,,1,0,1,0,17,0,17,0,,,,,,,,,,,,,,,,,,,,,,,,,,,,,,,,,,,,,,,,,,,,,,,,,Listen to the question and speak out your answer!,1806.3734509944916,None,1806.3407433509828,1808.3733448982239,Die Ärztin hat Andrea ein Rezept ausgestellt.,ausgestellt,1807.7565365076066,1810.806697845459,1811.1900494337083,None,1822.957438492775,None,1824.374078989029,None,./data/Subject_06/Session_00/Exp_data/2020_Jul_10_1426/rec_QA_run_02_block_001_trial_017.wav,06,00,Dutch,A2,True,False,True,False,False,True,True,True,True,True,True,True,No,2,No,No,No,No,2020_Jul_10_1426,nibs_stage_1,3.2.3,60.01963303960093,
2,0,2,0,,,,,1,0,1,0,18,0,18,0,,,,,,,,,,,,,,,,,,,,,,,,,,,,,,,,,,,,,,,,,,,,,,,,,Listen to the question and speak out your answer!,1827.4078509807587,None,1827.39187104702,1829.407783985138,Ich gratuliere dir zum Bestehen dieser schwierigen Prüfung.,gratuliere,1828.791017317772,None,1832.6245153188706,None,1843.991806292534,None,1845.408555984497,None,./data/Subject_06/Session_00/Exp_data/2020_Jul_10_1426/rec_QA_run_02_block_001_trial_018.wav,06,00,Dutch,A2,True,False,True,False,False,True,True,True,True,True,True,True,No,2,No,No,No,No,2020_Jul_10_1426,nibs_stage_1,3.2.3,60.01963303960093,
2,0,2,0,,,,,1,0,1,0,19,0,19,0,,,,,,,,,,,,,,,,,,,,,,,,,,,,,,,,,,,,,,,,,,,,,,,,,Listen to the question and speak out your answer!,1848.475662946701,None,1848.4431975364687,1850.4754619598389,"Wir brauchen Obst und Gemüse, also muss ich auf den Markt gehen.",gehen,1849.8587794542314,None,1854.059008383751,None,1865.0596213579179,None,1866.476331949234,None,./data/Subject_06/Session_00/Exp_data/2020_Jul_10_1426/rec_QA_run_02_block_001_trial_019.wav,06,00,Dutch,A2,True,False,True,False,False,True,True,True,True,True,True,True,No,2,No,No,No,No,2020_Jul_10_1426,nibs_stage_1,3.2.3,60.01963303960093,
2,0,2,0,,,,,1,0,1,0,20,0,20,0,,,,,,,,,,,,,,,,,,,,,,,,,,,,,,,,,,,,,,,,,,,,,,,,,Listen to the question and speak out your answer!,1869.4932198524475,None,1869.4775393486025,1871.4932408332825,Er hat Kartoffeln mit der Schale gekocht.,gekocht,1870.8765545129777,None,1873.6767144441606,None,1886.0773904561997,1887.0940809249878,1887.494099855423,None,./data/Subject_06/Session_00/Exp_data/2020_Jul_10_1426/rec_QA_run_02_block_001_trial_020.wav,06,00,Dutch,A2,True,False,True,False,False,True,True,True,True,True,True,True,No,2,No,No,No,No,2020_Jul_10_1426,nibs_stage_1,3.2.3,60.01963303960093,
2,0,2,0,,,,,1,0,1,0,21,0,21,0,,,,,,,,,,,,,,,,,,,,,,,,,,,,,,,,,,,,,,,,,,,,,,,,,Listen to the question and speak out your answer!,1890.560870885849,None,1890.545244050026,1892.561054944992,"Du kannst den Hund streicheln, er wird dich nicht beißen.",beißen,1891.9443593263627,None,1895.3446204900742,None,1907.1451444864274,1908.1618628501892,1908.561959028244,None,./data/Subject_06/Session_00/Exp_data/2020_Jul_10_1426/rec_QA_run_02_block_001_trial_021.wav,06,00,Dutch,A2,True,False,True,False,False,True,True,True,True,True,True,True,No,2,No,No,No,No,2020_Jul_10_1426,nibs_stage_1,3.2.3,60.01963303960093,
2,0,2,0,,,,,1,0,1,0,22,0,22,0,,,,,,,,,,,,,,,,,,,,,,,,,,,,,,,,,,,,,,,,,,,,,,,,,Listen to the question and speak out your answer!,1911.6287178993225,None,1911.6130150079728,1913.628890991211,Ich muss für meine wichtige Prüfung morgen lernen.,lernen,1913.012214446068,1915.9289968013763,1916.3123874902726,None,1928.2130134344102,1929.2297940254211,1929.629823923111,None,./data/Subject_06/Session_00/Exp_data/2020_Jul_10_1426/rec_QA_run_02_block_001_trial_022.wav,06,00,Dutch,A2,True,False,True,False,False,True,True,True,True,True,True,True,No,2,No,No,No,No,2020_Jul_10_1426,nibs_stage_1,3.2.3,60.01963303960093,
2,0,2,0,,,,,1,0,1,0,23,0,23,0,,,,,,,,,,,,,,,,,,,,,,,,,,,,,,,,,,,,,,,,,,,,,,,,,Listen to the question and speak out your answer!,1932.6798689365387,None,1932.664133358002,1934.6800708770752,"Wenn es wärmer wird, werde ich die Fenster öffnen.",öffnen,1934.0633223295213,None,1937.2301423788072,None,1949.2641833066941,None,1950.6809079647064,None,./data/Subject_06/Session_00/Exp_data/2020_Jul_10_1426/rec_QA_run_02_block_001_trial_023.wav,06,00,Dutch,A2,True,False,True,False,False,True,True,True,True,True,True,True,No,2,No,No,No,No,2020_Jul_10_1426,nibs_stage_1,3.2.3,60.01963303960093,
