run.thisRepN,run.thisTrialN,run.thisN,run.thisIndex,QA_block.thisRepN,QA_block.thisTrialN,QA_block.thisN,QA_block.thisIndex,QA_trial.thisRepN,QA_trial.thisTrialN,QA_trial.thisN,QA_trial.thisIndex,fade_in_text.text,fade_in_text.started,fade_in_text.stopped,RS_intro_title.started,RS_intro_title.stopped,RS_intro_text.text,RS_intro_text.started,RS_intro_text.stopped,RS_intro_audio.started,RS_intro_audio.stopped,RS_rec_text.text,RS_rec_text.started,RS_rec_text.stopped,Pause_cont.started,Pause_cont.stopped,QA_intro_title.started,QA_intro_title.stopped,QA_intro_text.text,QA_intro_text.started,QA_intro_text.stopped,QA_intro_audio.started,QA_intro_audio.stopped,QA_intro_cont.started,QA_intro_cont.stopped,QA_rec_text.text,QA_rec_text.started,QA_rec_text.stopped,QA_rec_beep_hint.started,QA_rec_beep_hint.stopped,QA_rec_question.sen_text,QA_rec_question.cen_text,QA_rec_question.started,QA_rec_question.stopped,QA_rec_beep_start.started,QA_rec_beep_start.stopped,QA_rec_beep_end.started,QA_rec_beep_end.stopped,QA_rec_break.started,QA_rec_break.stopped,filename,participant,session,First language,German level,Full_screen,Instruction,Intro,Artifact,Cali_pre,Fade_in_out,Artifact_within,Resting_State,QA,Pause,Cali_post,End,Breakpoint_Cali_pre_trial,Breakpoint_Run,Breakpoint_RS_block,Breakpoint_QA_block,Breakpoint_QA_trial,Breakpoint_Cali_post_trial,date,expName,psychopyVersion,frameRate,
1,0,1,0,0,0,0,0,0,0,0,0,Please remain seated until further instruction via the earphone.,65.9864809513092,None,275.41436195373535,None," - Task: Keep seated and relaxed with either      
             opening or closing eyes                  
 - Beep sound with decreasing pitch: Block finish 
",275.41436195373535,None,275.41332030296326,None,"Please keep relaxed and close your eyes.
",298.43250799179077,478.4421389102936,481.8420639038086,None,497.9434449672699,537.9618079662323," - Task: Listen to the question& Speak out answer 
 - Melodious beep sound: Trial start              
 - Silent sound (blank): censored word            
 - Beep sound with increasing pitch: Rec. start   
 - Beep sound with decreasing pitch: Rec. finish  
",497.9434449672699,537.9618079662323,497.9244590997696,None,537.3284180164337,None,Listen to the question and speak out your answer!,541.2620310783386,None,541.2433220148087,543.2453119754791,"Das Messer ist so stumpf, dass wir nicht mehr brauchen.",brauchen,542.645222067833,None,546.0955020189285,547.095470905304,557.8461059331894,None,559.262904882431,None,./data/Subject_06/Session_00/Exp_data/2020_Jul_10_1348/rec_QA_run_01_block_000_trial_000.wav,06,00,Dutch,A2,True,False,True,False,False,True,True,True,True,True,True,True,No,1,No,No,No,No,2020_Jul_10_1348,nibs_stage_1,3.2.3,60.012419409763254,
1,0,1,0,0,0,0,0,1,0,1,0,,,,,,,,,,,,,,,,,,,,,,,,,Listen to the question and speak out your answer!,562.3300590515137,None,562.3117183446884,564.3297929763794,Alex duscht morgens gerne im Badezimmer.,duscht,563.7131010293961,566.3299160003662,566.7132610082626,None,578.9138959646225,None,580.3305878639221,None,./data/Subject_06/Session_00/Exp_data/2020_Jul_10_1348/rec_QA_run_01_block_000_trial_001.wav,06,00,Dutch,A2,True,False,True,False,False,True,True,True,True,True,True,True,No,1,No,No,No,No,2020_Jul_10_1348,nibs_stage_1,3.2.3,60.012419409763254,
1,0,1,0,0,0,0,0,2,0,2,0,,,,,,,,,,,,,,,,,,,,,,,,,Listen to the question and speak out your answer!,583.3979859352112,None,583.3795422315598,585.397598028183,Im Herbst verfärben sich die Blätter gelb und fallen auf den Boden.,fallen,584.7808879613876,588.5977790355682,588.9810398817062,None,599.9817069768906,None,601.3985109329224,None,./data/Subject_06/Session_00/Exp_data/2020_Jul_10_1348/rec_QA_run_01_block_000_trial_002.wav,06,00,Dutch,A2,True,False,True,False,False,True,True,True,True,True,True,True,No,1,No,No,No,No,2020_Jul_10_1348,nibs_stage_1,3.2.3,60.012419409763254,
1,0,1,0,0,0,0,0,3,0,3,0,,,,,,,,,,,,,,,,,,,,,,,,,Listen to the question and speak out your answer!,604.4667630195618,None,604.4473513364792,606.4653739929199,Ich arbeite normalerweise von Montag bis Freitag.,arbeite,605.815337061882,None,609.5822108983994,610.5989549160004,621.0162838697433,None,622.4329190254211,None,./data/Subject_06/Session_00/Exp_data/2020_Jul_10_1348/rec_QA_run_01_block_000_trial_003.wav,06,00,Dutch,A2,True,False,True,False,False,True,True,True,True,True,True,True,No,1,No,No,No,No,2020_Jul_10_1348,nibs_stage_1,3.2.3,60.012419409763254,
1,0,1,0,0,0,0,0,4,0,4,0,,,,,,,,,,,,,,,,,,,,,,,,,Listen to the question and speak out your answer!,625.5001020431519,None,625.4817773103714,627.4998619556427,"Meine Geschichte ist wahr, ich habe keine Lügen erzählt.",erzählt,626.8831380605698,None,630.5833328962326,None,642.0840018987656,None,643.500706911087,None,./data/Subject_06/Session_00/Exp_data/2020_Jul_10_1348/rec_QA_run_01_block_000_trial_004.wav,06,00,Dutch,A2,True,False,True,False,False,True,True,True,True,True,True,True,No,1,No,No,No,No,2020_Jul_10_1348,nibs_stage_1,3.2.3,60.012419409763254,
1,0,1,0,0,0,0,0,5,0,5,0,,,,,,,,,,,,,,,,,,,,,,,,,Listen to the question and speak out your answer!,646.5514209270477,None,646.532915353775,648.5509588718414,Der Verletzte braucht dringend einen Arzt zu besuchen.,besuchen,647.9342690706253,651.0511510372162,651.4344440698624,None,663.1351538896561,None,664.5519199371338,None,./data/Subject_06/Session_00/Exp_data/2020_Jul_10_1348/rec_QA_run_01_block_000_trial_005.wav,06,00,Dutch,A2,True,False,True,False,False,True,True,True,True,True,True,True,No,1,No,No,No,No,2020_Jul_10_1348,nibs_stage_1,3.2.3,60.012419409763254,
1,0,1,0,0,0,0,0,6,0,6,0,,,,,,,,,,,,,,,,,,,,,,,,,Listen to the question and speak out your answer!,667.6018679141998,None,667.5841302871704,669.6021809577942,Kannst du mir das mit einem konkreten Beispiel erklären?,erklären,668.9854799509048,None,672.585776925087,None,684.1862879991531,685.2029809951782,685.6030449867249,None,./data/Subject_06/Session_00/Exp_data/2020_Jul_10_1348/rec_QA_run_01_block_000_trial_006.wav,06,00,Dutch,A2,True,False,True,False,False,True,True,True,True,True,True,True,No,1,No,No,No,No,2020_Jul_10_1348,nibs_stage_1,3.2.3,60.012419409763254,
1,0,1,0,0,0,0,0,7,0,7,0,,,,,,,,,,,,,,,,,,,,,,,,,Listen to the question and speak out your answer!,688.6364068984985,None,688.6186252832413,690.6366400718689,Das Bild kann mir die Uhrzeitangabe verstehen helfen.,helfen,690.0198758840561,None,693.5868009328842,694.603551864624,705.2206588983536,None,706.6374280452728,None,./data/Subject_06/Session_00/Exp_data/2020_Jul_10_1348/rec_QA_run_01_block_000_trial_007.wav,06,00,Dutch,A2,True,False,True,False,False,True,True,True,True,True,True,True,No,1,No,No,No,No,2020_Jul_10_1348,nibs_stage_1,3.2.3,60.012419409763254,
1,0,1,0,0,0,0,0,8,0,8,0,,,,,,,,,,,,,,,,,,,,,,,,,Listen to the question and speak out your answer!,709.6891260147095,None,709.6696383953094,711.6876759529114,Ich bin krank und bleibe heute im Bett.,bleibe,711.0709830522537,713.4877779483795,713.8710459470749,None,726.2718180418015,None,727.6885190010071,None,./data/Subject_06/Session_00/Exp_data/2020_Jul_10_1348/rec_QA_run_01_block_000_trial_008.wav,06,00,Dutch,A2,True,False,True,False,False,True,True,True,True,True,True,True,No,1,No,No,No,No,2020_Jul_10_1348,nibs_stage_1,3.2.3,60.012419409763254,
1,0,1,0,0,0,0,0,9,0,9,0,,,,,,,,,,,,,,,,,,,,,,,,,Listen to the question and speak out your answer!,730.7055869102478,None,730.6874122619629,732.7054550647736,Du solltest deiner Geliebten Blumen zum Geburtstag schenken.,schenken,732.088742852211,None,735.9556208848953,None,747.2896128892899,None,748.7063338756561,None,./data/Subject_06/Session_00/Exp_data/2020_Jul_10_1348/rec_QA_run_01_block_000_trial_009.wav,06,00,Dutch,A2,True,False,True,False,False,True,True,True,True,True,True,True,No,1,No,No,No,No,2020_Jul_10_1348,nibs_stage_1,3.2.3,60.012419409763254,
1,0,1,0,0,0,0,0,10,0,10,0,,,,,,,,,,,,,,,,,,,,,,,,,Listen to the question and speak out your answer!,751.7573940753937,None,751.7385423183441,753.7565898895264,"Wer viele CO2-Emissionen produziert, belastet die Umwelt.",belastet,753.1399739980698,757.3901178836823,757.7734650373459,None,768.340684056282,769.3574259281158,769.7574520111084,None,./data/Subject_06/Session_00/Exp_data/2020_Jul_10_1348/rec_QA_run_01_block_000_trial_010.wav,06,00,Dutch,A2,True,False,True,False,False,True,True,True,True,True,True,True,No,1,No,No,No,No,2020_Jul_10_1348,nibs_stage_1,3.2.3,60.012419409763254,
1,0,1,0,0,0,0,0,11,0,11,0,,,,,,,,,,,,,,,,,,,,,,,,,Listen to the question and speak out your answer!,772.8246080875397,None,772.8062292337418,774.8243839740753,Der Mitarbeiter wurde für seinen Fleiß und seine harte Arbeit belohnt.,belohnt,774.2076719999313,778.2581100463867,778.6413379907608,779.6580920219421,789.3918348550797,790.4085509777069,790.8085730075836,None,./data/Subject_06/Session_00/Exp_data/2020_Jul_10_1348/rec_QA_run_01_block_000_trial_011.wav,06,00,Dutch,A2,True,False,True,False,False,True,True,True,True,True,True,True,No,1,No,No,No,No,2020_Jul_10_1348,nibs_stage_1,3.2.3,60.012419409763254,
1,0,1,0,0,0,0,0,12,0,12,0,,,,,,,,,,,,,,,,,,,,,,,,,Listen to the question and speak out your answer!,793.8590500354767,None,793.8407773971558,795.858836889267,Viele Indianer leben in Reservaten.,leben,795.2422009706497,797.992290019989,798.3756419420242,None,810.4429498910904,None,811.85972905159,None,./data/Subject_06/Session_00/Exp_data/2020_Jul_10_1348/rec_QA_run_01_block_000_trial_012.wav,06,00,Dutch,A2,True,False,True,False,False,True,True,True,True,True,True,True,No,1,No,No,No,No,2020_Jul_10_1348,nibs_stage_1,3.2.3,60.012419409763254,
1,0,1,0,0,0,0,0,13,0,13,0,,,,,,,,,,,,,,,,,,,,,,,,,Listen to the question and speak out your answer!,814.9107868671417,None,814.8919134140015,816.9099519252777,Die Sonne scheint durch die grauen Wolken.,scheint,816.2933338880539,None,819.0600630044937,None,831.4940768480301,None,832.9108309745789,None,./data/Subject_06/Session_00/Exp_data/2020_Jul_10_1348/rec_QA_run_01_block_000_trial_013.wav,06,00,Dutch,A2,True,False,True,False,False,True,True,True,True,True,True,True,No,1,No,No,No,No,2020_Jul_10_1348,nibs_stage_1,3.2.3,60.012419409763254,
1,0,1,0,0,0,0,0,14,0,14,0,,,,,,,,,,,,,,,,,,,,,,,,,Listen to the question and speak out your answer!,835.9619479179382,None,835.9431252479553,837.9610948562622,Das Flugzeug fliegt den vorgeschriebenen Kurs.,fliegt,837.3443769216537,840.3278729915619,840.7112139463425,None,852.5452049970627,None,853.9618608951569,None,./data/Subject_06/Session_00/Exp_data/2020_Jul_10_1348/rec_QA_run_01_block_000_trial_014.wav,06,00,Dutch,A2,True,False,True,False,False,True,True,True,True,True,True,True,No,1,No,No,No,No,2020_Jul_10_1348,nibs_stage_1,3.2.3,60.012419409763254,
1,0,1,0,0,0,0,0,15,0,15,0,,,,,,,,,,,,,,,,,,,,,,,,,Listen to the question and speak out your answer!,857.0123598575592,None,856.9774652719498,859.012209892273,"Lebensmittel sind die Dinge, die man essen kann.",essen,858.3955398797989,None,861.6623429059982,862.6791050434113,873.5962520837784,874.6131179332733,875.0131108760834,None,./data/Subject_06/Session_00/Exp_data/2020_Jul_10_1348/rec_QA_run_01_block_000_trial_015.wav,06,00,Dutch,A2,True,False,True,False,False,True,True,True,True,True,True,True,No,1,No,No,No,No,2020_Jul_10_1348,nibs_stage_1,3.2.3,60.012419409763254,
1,0,1,0,0,0,0,0,16,0,16,0,,,,,,,,,,,,,,,,,,,,,,,,,Listen to the question and speak out your answer!,878.0314328670502,None,878.0119524002075,880.0300159454346,"Weil er so hungrig war, hat Franz einmal einen Apfel gestohlen.",gestohlen,879.413293004036,883.1972239017487,883.5801738500595,None,894.5807589292526,None,895.9975080490112,None,./data/Subject_06/Session_00/Exp_data/2020_Jul_10_1348/rec_QA_run_01_block_000_trial_016.wav,06,00,Dutch,A2,True,False,True,False,False,True,True,True,True,True,True,True,No,1,No,No,No,No,2020_Jul_10_1348,nibs_stage_1,3.2.3,60.012419409763254,
1,0,1,0,0,0,0,0,17,0,17,0,,,,,,,,,,,,,,,,,,,,,,,,,Listen to the question and speak out your answer!,899.0485000610352,None,899.0297384262085,901.0477769374847,Biologie gehört zu den Natur-Wissenschaften.,gehört,900.4310659170151,903.3812148571014,903.7645610570908,None,915.6318539381027,None,917.0485968589783,None,./data/Subject_06/Session_00/Exp_data/2020_Jul_10_1348/rec_QA_run_01_block_000_trial_017.wav,06,00,Dutch,A2,True,False,True,False,False,True,True,True,True,True,True,True,No,1,No,No,No,No,2020_Jul_10_1348,nibs_stage_1,3.2.3,60.012419409763254,
1,0,1,0,0,0,0,0,18,0,18,0,,,,,,,,,,,,,,,,,,,,,,,,,Listen to the question and speak out your answer!,920.2323410511017,None,920.2140831947327,922.2321920394897,Leo ist schon zur Arbeit gegangen.,gegangen,921.5822430849075,923.6989688873291,924.1156140565872,None,936.7829529047012,None,938.1997220516205,None,./data/Subject_06/Session_00/Exp_data/2020_Jul_10_1348/rec_QA_run_01_block_000_trial_018.wav,06,00,Dutch,A2,True,False,True,False,False,True,True,True,True,True,True,True,No,1,No,No,No,No,2020_Jul_10_1348,nibs_stage_1,3.2.3,60.012419409763254,
1,0,1,0,0,0,0,0,19,0,19,0,,,,,,,,,,,,,,,,,,,,,,,,,Listen to the question and speak out your answer!,941.2501530647278,None,941.2319102287292,943.2500250339508,Sie redete leise und unverständlich.,redete,942.633239865303,None,945.6667150259018,None,957.8341149091721,958.8507459163666,959.2507538795471,None,./data/Subject_06/Session_00/Exp_data/2020_Jul_10_1348/rec_QA_run_01_block_000_trial_019.wav,06,00,Dutch,A2,True,False,True,False,False,True,True,True,True,True,True,True,No,1,No,No,No,No,2020_Jul_10_1348,nibs_stage_1,3.2.3,60.012419409763254,
1,0,1,0,0,0,0,0,20,0,20,0,,,,,,,,,,,,,,,,,,,,,,,,,Listen to the question and speak out your answer!,962.2682030200958,None,962.2495572566986,964.2677018642426,Fabienne ist Ärztin und arbeitet im Krankenhaus.,arbeitet,963.6509720087051,966.9344780445099,967.3178468942642,968.3345789909363,978.8518098592758,None,980.2684168815613,None,./data/Subject_06/Session_00/Exp_data/2020_Jul_10_1348/rec_QA_run_01_block_000_trial_020.wav,06,00,Dutch,A2,True,False,True,False,False,True,True,True,True,True,True,True,No,1,No,No,No,No,2020_Jul_10_1348,nibs_stage_1,3.2.3,60.012419409763254,
1,0,1,0,0,0,0,0,21,0,21,0,,,,,,,,,,,,,,,,,,,,,,,,,Listen to the question and speak out your answer!,983.3188278675079,None,983.3007674217224,985.3187580108643,"Ich versuche, jede Woche ein Buch zu lesen.",lesen,984.7019840478897,None,988.0354689359665,None,999.9028819799423,1000.9195780754089,1001.3195989131927,None,./data/Subject_06/Session_00/Exp_data/2020_Jul_10_1348/rec_QA_run_01_block_000_trial_021.wav,06,00,Dutch,A2,True,False,True,False,False,True,True,True,True,True,True,True,No,1,No,No,No,No,2020_Jul_10_1348,nibs_stage_1,3.2.3,60.012419409763254,
1,0,1,0,0,0,0,0,22,0,22,0,,,,,,,,,,,,,,,,,,,,,,,,,Listen to the question and speak out your answer!,1004.3865859508514,None,1004.3684092760086,1006.3865270614624,Die Hausfrau muss jeden Tag Lebensmittel einkaufen.,einkaufen,1005.7699180841446,None,1009.3700059652328,1010.386724948883,1020.9705229997635,None,1022.3873538970947,None,./data/Subject_06/Session_00/Exp_data/2020_Jul_10_1348/rec_QA_run_01_block_000_trial_022.wav,06,00,Dutch,A2,True,False,True,False,False,True,True,True,True,True,True,True,No,1,No,No,No,No,2020_Jul_10_1348,nibs_stage_1,3.2.3,60.012419409763254,
1,0,1,0,0,0,0,0,23,0,23,0,,,,,,,,,,,,,,,,,,,,,,,,,Listen to the question and speak out your answer!,1025.4042570590973,None,1025.3695613145828,1027.4042558670044,Er ist durch die ganze Welt gereist.,gereist,1026.7543150186539,None,1029.2210439443588,None,1041.955043911934,1042.9717710018158,1043.3717739582062,None,./data/Subject_06/Session_00/Exp_data/2020_Jul_10_1348/rec_QA_run_01_block_000_trial_023.wav,06,00,Dutch,A2,True,False,True,False,False,True,True,True,True,True,True,True,No,1,No,No,No,No,2020_Jul_10_1348,nibs_stage_1,3.2.3,60.012419409763254,
1,0,1,0,0,0,0,0,24,0,24,0,,,,,,,,,,,,,,,,,,,,,,,,,Listen to the question and speak out your answer!,1046.4220349788666,None,1046.3873513936996,1048.422049999237,Felix muss schon um sechs Uhr früh aufstehen.,aufstehen,1047.7719630002975,1050.6554820537567,1051.07215487957,None,1062.9727638959885,None,1064.3895308971405,None,./data/Subject_06/Session_00/Exp_data/2020_Jul_10_1348/rec_QA_run_01_block_000_trial_024.wav,06,00,Dutch,A2,True,False,True,False,False,True,True,True,True,True,True,True,No,1,No,No,No,No,2020_Jul_10_1348,nibs_stage_1,3.2.3,60.012419409763254,
1,0,1,0,0,0,0,0,,,,,,,,,,,,,,,,,,1068.4398720264435,None,,,,,,,,,,,,,,,,,,,,,,,,,,06,00,Dutch,A2,True,False,True,False,False,True,True,True,True,True,True,True,No,1,No,No,No,No,2020_Jul_10_1348,nibs_stage_1,3.2.3,60.012419409763254,
1,0,1,0,1,0,1,0,0,0,0,0,,,,,,,,,,,,,,,,,,,,,,,,,Listen to the question and speak out your answer!,1084.7078568935394,None,1084.6886550188065,1086.7073318958282,In der Vergangenheit war Berlin in zwei Hälften geteilt.,geteilt,1086.0909270048141,1089.4412820339203,1089.824180006981,None,1101.2914298772812,None,1102.7081990242004,None,./data/Subject_06/Session_00/Exp_data/2020_Jul_10_1348/rec_QA_run_01_block_001_trial_000.wav,06,00,Dutch,A2,True,False,True,False,False,True,True,True,True,True,True,True,No,1,No,No,No,No,2020_Jul_10_1348,nibs_stage_1,3.2.3,60.012419409763254,
1,0,1,0,1,0,1,0,1,0,1,0,,,,,,,,,,,,,,,,,,,,,,,,,Listen to the question and speak out your answer!,1105.7416999340057,None,1105.7070603370667,1107.7417659759521,Hans spielt gerne mit Lego.,spielt,1107.1250780820847,1109.0418450832367,1109.4253970384598,None,1122.3258579969406,None,1123.7426030635834,None,./data/Subject_06/Session_00/Exp_data/2020_Jul_10_1348/rec_QA_run_01_block_001_trial_001.wav,06,00,Dutch,A2,True,False,True,False,False,True,True,True,True,True,True,True,No,1,No,No,No,No,2020_Jul_10_1348,nibs_stage_1,3.2.3,60.012419409763254,
1,0,1,0,1,0,1,0,2,0,2,0,,,,,,,,,,,,,,,,,,,,,,,,,Listen to the question and speak out your answer!,1126.7768409252167,None,1126.7414953708649,1128.776211977005,Während der Weihnachtszeit gibt es unter dem Weihnachtsbaum Geschenke für die Kinder.,gibt,1128.1262749433517,None,1133.126422047615,None,1143.3269439935684,None,1144.7437279224396,None,./data/Subject_06/Session_00/Exp_data/2020_Jul_10_1348/rec_QA_run_01_block_001_trial_002.wav,06,00,Dutch,A2,True,False,True,False,False,True,True,True,True,True,True,True,No,1,No,No,No,No,2020_Jul_10_1348,nibs_stage_1,3.2.3,60.012419409763254,
1,0,1,0,1,0,1,0,3,0,3,0,,,,,,,,,,,,,,,,,,,,,,,,,Listen to the question and speak out your answer!,1147.8111789226532,None,1147.7759764194489,1149.8106219768524,"Ich hoffe, dass alles gut geht. ",hoffe,1149.1939269304276,None,1151.4273809194565,None,1164.3946410417557,None,1165.8114559650421,None,./data/Subject_06/Session_00/Exp_data/2020_Jul_10_1348/rec_QA_run_01_block_001_trial_003.wav,06,00,Dutch,A2,True,False,True,False,False,True,True,True,True,True,True,True,No,1,No,No,No,No,2020_Jul_10_1348,nibs_stage_1,3.2.3,60.012419409763254,
1,0,1,0,1,0,1,0,4,0,4,0,,,,,,,,,,,,,,,,,,,,,,,,,Listen to the question and speak out your answer!,1168.8453290462494,None,1168.8270143270493,1170.845134973526,Ich habe meine Schuhe für die Hochzeit geputzt.,geputzt,1170.1950069665909,None,1173.2284148931503,None,1185.395945906639,None,1186.812597990036,None,./data/Subject_06/Session_00/Exp_data/2020_Jul_10_1348/rec_QA_run_01_block_001_trial_004.wav,06,00,Dutch,A2,True,False,True,False,False,True,True,True,True,True,True,True,No,1,No,No,No,No,2020_Jul_10_1348,nibs_stage_1,3.2.3,60.012419409763254,
1,0,1,0,1,0,1,0,5,0,5,0,,,,,,,,,,,,,,,,,,,,,,,,,Listen to the question and speak out your answer!,1189.8644318580627,None,1189.8447432518005,1191.8629519939423,Das Zimmer kostet ein Hundert Euro pro Nacht.,kostet,1191.2127579450607,1194.09628200531,1194.4796360731125,None,1206.4135850667953,1207.4303040504456,1207.8304369449615,None,./data/Subject_06/Session_00/Exp_data/2020_Jul_10_1348/rec_QA_run_01_block_001_trial_005.wav,06,00,Dutch,A2,True,False,True,False,False,True,True,True,True,True,True,True,No,1,No,No,No,No,2020_Jul_10_1348,nibs_stage_1,3.2.3,60.012419409763254,
1,0,1,0,1,0,1,0,6,0,6,0,,,,,,,,,,,,,,,,,,,,,,,,,Listen to the question and speak out your answer!,1210.8822739124298,None,1210.8625593185425,1212.8806359767914,Im gleichen Jahr hat der amerikanische Bürgerkrieg begonnen.,begonnen,1212.263895869255,None,1216.13074696064,None,1227.4313229322433,None,1228.8481180667877,None,./data/Subject_06/Session_00/Exp_data/2020_Jul_10_1348/rec_QA_run_01_block_001_trial_006.wav,06,00,Dutch,A2,True,False,True,False,False,True,True,True,True,True,True,True,No,1,No,No,No,No,2020_Jul_10_1348,nibs_stage_1,3.2.3,60.012419409763254,
1,0,1,0,1,0,1,0,7,0,7,0,,,,,,,,,,,,,,,,,,,,,,,,,Listen to the question and speak out your answer!,1231.915601015091,None,1231.8802843093872,1233.9150230884552,"Wenn eine Erkältung hat, kann mann niesen oder husten.",husten,1233.2983020544052,1236.5818228721619,1236.9651590585709,None,1248.499086022377,None,1249.915724992752,None,./data/Subject_06/Session_00/Exp_data/2020_Jul_10_1348/rec_QA_run_01_block_001_trial_007.wav,06,00,Dutch,A2,True,False,True,False,False,True,True,True,True,True,True,True,No,1,No,No,No,No,2020_Jul_10_1348,nibs_stage_1,3.2.3,60.012419409763254,
1,0,1,0,1,0,1,0,8,0,8,0,,,,,,,,,,,,,,,,,,,,,,,,,Listen to the question and speak out your answer!,1252.9495840072632,None,1252.914748430252,1254.9495248794556,Das Lagerfeuer hat zwei Stunden lang gebrannt.,gebrannt,1254.299399971962,1257.0829708576202,1257.4662319421768,None,1269.500188946724,None,1270.916974067688,None,./data/Subject_06/Session_00/Exp_data/2020_Jul_10_1348/rec_QA_run_01_block_001_trial_008.wav,06,00,Dutch,A2,True,False,True,False,False,True,True,True,True,True,True,True,No,1,No,No,No,No,2020_Jul_10_1348,nibs_stage_1,3.2.3,60.012419409763254,
1,0,1,0,1,0,1,0,9,0,9,0,,,,,,,,,,,,,,,,,,,,,,,,,Listen to the question and speak out your answer!,1273.9684040546417,None,1273.9492082595825,1275.9673130512238,Viele Tiere leben in Afrika.,leben,1275.3505109548569,None,1278.0839768648148,None,1290.5512939691544,None,1291.96803689003,None,./data/Subject_06/Session_00/Exp_data/2020_Jul_10_1348/rec_QA_run_01_block_001_trial_009.wav,06,00,Dutch,A2,True,False,True,False,False,True,True,True,True,True,True,True,No,1,No,No,No,No,2020_Jul_10_1348,nibs_stage_1,3.2.3,60.012419409763254,
1,0,1,0,1,0,1,0,10,0,10,0,,,,,,,,,,,,,,,,,,,,,,,,,Listen to the question and speak out your answer!,1295.002191066742,None,1294.9669144153595,1297.0016989707947,Die friedlichen Pandas kommen aus China.,kommen,1296.3849450349808,None,1299.28539788723,None,1311.585802912712,None,1313.0024619102478,None,./data/Subject_06/Session_00/Exp_data/2020_Jul_10_1348/rec_QA_run_01_block_001_trial_010.wav,06,00,Dutch,A2,True,False,True,False,False,True,True,True,True,True,True,True,No,1,No,No,No,No,2020_Jul_10_1348,nibs_stage_1,3.2.3,60.012419409763254,
1,0,1,0,1,0,1,0,11,0,11,0,,,,,,,,,,,,,,,,,,,,,,,,,Listen to the question and speak out your answer!,1316.036493062973,None,1316.00133228302,1318.0360720157623,Ich habe meinen Sohn für den Kurs angemeldet.,angemeldet,1317.3860448598862,None,1320.4863559007645,1321.5029270648956,1332.5868629217148,None,1334.003581047058,None,./data/Subject_06/Session_00/Exp_data/2020_Jul_10_1348/rec_QA_run_01_block_001_trial_011.wav,06,00,Dutch,A2,True,False,True,False,False,True,True,True,True,True,True,True,No,1,No,No,No,No,2020_Jul_10_1348,nibs_stage_1,3.2.3,60.012419409763254,
1,0,1,0,1,0,1,0,12,0,12,0,,,,,,,,,,,,,,,,,,,,,,,,,Listen to the question and speak out your answer!,1337.0537469387054,None,1337.0357654094696,1339.0538420677185,Die Reparatur wird um ein hundert Euro kosten.,kosten,1338.4371289014816,None,1341.7040439844131,None,1353.6379619836807,None,1355.0546779632568,None,./data/Subject_06/Session_00/Exp_data/2020_Jul_10_1348/rec_QA_run_01_block_001_trial_012.wav,06,00,Dutch,A2,True,False,True,False,False,True,True,True,True,True,True,True,No,1,No,No,No,No,2020_Jul_10_1348,nibs_stage_1,3.2.3,60.012419409763254,
1,0,1,0,1,0,1,0,13,0,13,0,,,,,,,,,,,,,,,,,,,,,,,,,Listen to the question and speak out your answer!,1358.0887789726257,None,1358.0535924434662,1360.0882740020752,Sarah badet lieber abends in der Wanne.,badet,1359.4382470846176,None,1362.2717980146408,None,1374.6389719247818,None,1376.0557940006256,None,./data/Subject_06/Session_00/Exp_data/2020_Jul_10_1348/rec_QA_run_01_block_001_trial_013.wav,06,00,Dutch,A2,True,False,True,False,False,True,True,True,True,True,True,True,No,1,No,No,No,No,2020_Jul_10_1348,nibs_stage_1,3.2.3,60.012419409763254,
1,0,1,0,1,0,1,0,14,0,14,0,,,,,,,,,,,,,,,,,,,,,,,,,Listen to the question and speak out your answer!,1379.10786485672,None,1379.0879113674164,1381.1060678958893,Ich koche die Kartoffeln für die Kartoffelsuppe.,koche,1380.4892438650131,None,1383.656159043312,None,1395.6901589632034,None,1397.106878042221,None,./data/Subject_06/Session_00/Exp_data/2020_Jul_10_1348/rec_QA_run_01_block_001_trial_014.wav,06,00,Dutch,A2,True,False,True,False,False,True,True,True,True,True,True,True,No,1,No,No,No,No,2020_Jul_10_1348,nibs_stage_1,3.2.3,60.012419409763254,
1,0,1,0,1,0,1,0,15,0,15,0,,,,,,,,,,,,,,,,,,,,,,,,,Listen to the question and speak out your answer!,1400.1743030548096,None,1400.1391062736511,1402.1744179725647,Tomas fischt im Fluss und wird Fisch zum Abendessen essen.,fischt,1401.5571068525314,1405.2075140476227,1405.590677857399,None,1416.7579089403152,None,1418.1746599674225,None,./data/Subject_06/Session_00/Exp_data/2020_Jul_10_1348/rec_QA_run_01_block_001_trial_015.wav,06,00,Dutch,A2,True,False,True,False,False,True,True,True,True,True,True,True,No,1,No,No,No,No,2020_Jul_10_1348,nibs_stage_1,3.2.3,60.012419409763254,
1,0,1,0,1,0,1,0,16,0,16,0,,,,,,,,,,,,,,,,,,,,,,,,,Listen to the question and speak out your answer!,1421.2083480358124,None,1421.1737022399902,1423.2082600593567,Der moderne Mensch ist ursprünglich aus Afrika gekommen.,gekommen,1422.5915528535843,None,1426.3584078550339,None,1437.7923308610916,None,1439.2090890407562,None,./data/Subject_06/Session_00/Exp_data/2020_Jul_10_1348/rec_QA_run_01_block_001_trial_016.wav,06,00,Dutch,A2,True,False,True,False,False,True,True,True,True,True,True,True,No,1,No,No,No,No,2020_Jul_10_1348,nibs_stage_1,3.2.3,60.012419409763254,
1,0,1,0,1,0,1,0,17,0,17,0,,,,,,,,,,,,,,,,,,,,,,,,,Listen to the question and speak out your answer!,1442.2270109653473,None,1442.2079622745514,1444.226000070572,Manche Menschen kann mehr Fleisch als Gemüse essen.,essen,1443.60930788517,1446.626205921173,1447.0094908475876,1448.0262100696564,1458.810150027275,None,1460.226861000061,None,./data/Subject_06/Session_00/Exp_data/2020_Jul_10_1348/rec_QA_run_01_block_001_trial_017.wav,06,00,Dutch,A2,True,False,True,False,False,True,True,True,True,True,True,True,No,1,No,No,No,No,2020_Jul_10_1348,nibs_stage_1,3.2.3,60.012419409763254,
1,0,1,0,1,0,1,0,18,0,18,0,,,,,,,,,,,,,,,,,,,,,,,,,Listen to the question and speak out your answer!,1463.2937378883362,None,1463.2590763568878,1465.29407787323,"Ich habe probiert, ihn zu überreden, aber er will nicht uns gehen. ",probiert,1464.6772068738937,1468.360678911209,1468.7440189123154,None,1479.8613308668137,None,1481.2779920101166,None,./data/Subject_06/Session_00/Exp_data/2020_Jul_10_1348/rec_QA_run_01_block_001_trial_018.wav,06,00,Dutch,A2,True,False,True,False,False,True,True,True,True,True,True,True,No,1,No,No,No,No,2020_Jul_10_1348,nibs_stage_1,3.2.3,60.012419409763254,
1,0,1,0,1,0,1,0,19,0,19,0,,,,,,,,,,,,,,,,,,,,,,,,,Listen to the question and speak out your answer!,1484.3615510463715,None,1484.3268324136734,1486.3615539073944,"Ausländische Studenten, die wenig Geld haben, brauchen ein Stipendium.",brauchen,1485.7115129232407,1490.1951370239258,1490.5784548521042,None,1500.9123989343643,None,1502.3291020393372,None,./data/Subject_06/Session_00/Exp_data/2020_Jul_10_1348/rec_QA_run_01_block_001_trial_019.wav,06,00,Dutch,A2,True,False,True,False,False,True,True,True,True,True,True,True,No,1,No,No,No,No,2020_Jul_10_1348,nibs_stage_1,3.2.3,60.012419409763254,
1,0,1,0,1,0,1,0,20,0,20,0,,,,,,,,,,,,,,,,,,,,,,,,,Listen to the question and speak out your answer!,1505.3965740203857,None,1505.3612642288208,1507.3960559368134,An unserem Baum hängen viele reife Birnen,hängen,1506.7792879343033,1509.6295969486237,1509.9794899225235,None,1521.980105996132,None,1523.396950006485,None,./data/Subject_06/Session_00/Exp_data/2020_Jul_10_1348/rec_QA_run_01_block_001_trial_020.wav,06,00,Dutch,A2,True,False,True,False,False,True,True,True,True,True,True,True,No,1,No,No,No,No,2020_Jul_10_1348,nibs_stage_1,3.2.3,60.012419409763254,
1,0,1,0,1,0,1,0,21,0,21,0,,,,,,,,,,,,,,,,,,,,,,,,,Listen to the question and speak out your answer!,1526.4146189689636,None,1526.3957533836365,1528.4137840270996,Ist der Tisch schon gedeckt?,gedeckt,1527.797080874443,1529.3477408885956,1529.7305020093918,None,1542.9978829622269,None,1544.4146270751953,None,./data/Subject_06/Session_00/Exp_data/2020_Jul_10_1348/rec_QA_run_01_block_001_trial_021.wav,06,00,Dutch,A2,True,False,True,False,False,True,True,True,True,True,True,True,No,1,No,No,No,No,2020_Jul_10_1348,nibs_stage_1,3.2.3,60.012419409763254,
1,0,1,0,1,0,1,0,22,0,22,0,,,,,,,,,,,,,,,,,,,,,,,,,Listen to the question and speak out your answer!,1547.4815590381622,None,1547.4634863138199,1549.4814720153809,"Wenn ich mich gestresst fühle, muss ich mich selbst daran erinnern, ruhig zu bleiben.",erinnern,1548.8648430109024,1553.581780910492,1553.9651168584824,1554.9818789958954,1564.0656419992447,None,1565.482383966446,None,./data/Subject_06/Session_00/Exp_data/2020_Jul_10_1348/rec_QA_run_01_block_001_trial_022.wav,06,00,Dutch,A2,True,False,True,False,False,True,True,True,True,True,True,True,No,1,No,No,No,No,2020_Jul_10_1348,nibs_stage_1,3.2.3,60.012419409763254,
1,0,1,0,1,0,1,0,23,0,23,0,,,,,,,,,,,,,,,,,,,,,,,,,Listen to the question and speak out your answer!,1568.5159640312195,None,1568.4812684059143,1570.5159828662872,"Die Brille bekommst du beim Optiker, dann kannst du wieder perfekt sehen.",sehen,1569.8992739915848,None,1574.3328338861465,None,1585.1000040769577,1586.1168520450592,1586.5168449878693,None,./data/Subject_06/Session_00/Exp_data/2020_Jul_10_1348/rec_QA_run_01_block_001_trial_023.wav,06,00,Dutch,A2,True,False,True,False,False,True,True,True,True,True,True,True,No,1,No,No,No,No,2020_Jul_10_1348,nibs_stage_1,3.2.3,60.012419409763254,
1,0,1,0,1,0,1,0,24,0,24,0,,,,,,,,,,,,,,,,,,,,,,,,,Listen to the question and speak out your answer!,1589.5509870052338,None,1589.515700340271,1591.55042886734,"Araber lieben es, auf den Märkten zu handeln.",handeln,1590.9003599882126,1593.7505519390106,1594.1338099241257,1595.1506400108337,1606.1011909246445,1607.1179568767548,1607.5179369449615,None,./data/Subject_06/Session_00/Exp_data/2020_Jul_10_1348/rec_QA_run_01_block_001_trial_024.wav,06,00,Dutch,A2,True,False,True,False,False,True,True,True,True,True,True,True,No,1,No,No,No,No,2020_Jul_10_1348,nibs_stage_1,3.2.3,60.012419409763254,
