run.thisRepN,run.thisTrialN,run.thisN,run.thisIndex,QA_block.thisRepN,QA_block.thisTrialN,QA_block.thisN,QA_block.thisIndex,QA_trial.thisRepN,QA_trial.thisTrialN,QA_trial.thisN,QA_trial.thisIndex,fade_in_text.text,fade_in_text.started,fade_in_text.stopped,RS_intro_title.started,RS_intro_title.stopped,RS_intro_text.text,RS_intro_text.started,RS_intro_text.stopped,RS_intro_audio.started,RS_intro_audio.stopped,RS_rec_text.text,RS_rec_text.started,RS_rec_text.stopped,Pause_cont.started,Pause_cont.stopped,QA_intro_title.started,QA_intro_title.stopped,QA_intro_text.text,QA_intro_text.started,QA_intro_text.stopped,QA_intro_audio.started,QA_intro_audio.stopped,QA_intro_cont.started,QA_intro_cont.stopped,QA_rec_text.text,QA_rec_text.started,QA_rec_text.stopped,QA_rec_beep_hint.started,QA_rec_beep_hint.stopped,QA_rec_question.sen_text,QA_rec_question.cen_text,QA_rec_question.started,QA_rec_question.stopped,QA_rec_beep_start.started,QA_rec_beep_start.stopped,QA_rec_beep_end.started,QA_rec_beep_end.stopped,QA_rec_break.started,QA_rec_break.stopped,filename,participant,session,First language,German level,Full_screen,Instruction,Intro,Artifact,Cali_pre,Fade_in_out,Artifact_within,Resting_State,QA,Pause,Cali_post,End,Breakpoint_Cali_pre_trial,Breakpoint_Run,Breakpoint_RS_block,Breakpoint_QA_block,Breakpoint_QA_trial,Breakpoint_Cali_post_trial,date,expName,psychopyVersion,frameRate,
3,0,3,0,0,0,0,0,0,0,0,0,Please remain seated until further instruction via the earphone.,53.61773705482483,None,263.0787091255188,None," - Task: Keep seated and relaxed with either      
             opening or closing eyes                  
 - Beep sound with decreasing pitch: Block finish 
",263.0787091255188,None,263.06185803413393,None,"Please keep relaxed and close your eyes.
",286.0964570045471,466.10619497299194,469.5065441131592,None,485.39104104042053,525.4090571403503," - Task: Listen to the question& Speak out answer 
 - Melodious beep sound: Trial start              
 - Silent sound (blank): censored word            
 - Beep sound with increasing pitch: Rec. start   
 - Beep sound with decreasing pitch: Rec. finish  
",485.39104104042053,525.4090571403503,485.3735882520676,None,524.7756991386414,None,Listen to the question and speak out your answer!,531.4762330055237,None,531.4593329668045,533.4594860076904,Der Amazon Kurier hat das Paket geliefert.,geliefert,532.8595623254776,None,536.0596234083175,None,548.060298371315,None,549.4603340625763,550.4603850841522,./data/Subject_06/Session_00/Exp_data/2020_Jul_10_1524/rec_QA_run_03_block_000_trial_000.wav,06,00,Dutch,A2,True,False,True,False,False,True,True,True,True,True,True,True,No,3,No,No,No,No,2020_Jul_10_1524,nibs_stage_1,3.2.3,60.020406031370335,
3,0,3,0,0,0,0,0,1,0,1,0,,,,,,,,,,,,,,,,,,,,,,,,,Listen to the question and speak out your answer!,552.5273561477661,None,552.51046230793,554.5106070041656,Sie kümmert sich nur um ihre eigenen Angelegenheiten.,kümmert,553.8939322710037,None,557.5107683420181,558.5108270645142,569.0947152853012,None,570.4947021007538,571.4948461055756,./data/Subject_06/Session_00/Exp_data/2020_Jul_10_1524/rec_QA_run_03_block_000_trial_001.wav,06,00,Dutch,A2,True,False,True,False,False,True,True,True,True,True,True,True,No,3,No,No,No,No,2020_Jul_10_1524,nibs_stage_1,3.2.3,60.020406031370335,
3,0,3,0,0,0,0,0,2,0,2,0,,,,,,,,,,,,,,,,,,,,,,,,,Listen to the question and speak out your answer!,573.562155008316,None,573.5617053747177,575.5616359710693,Die Lampe hängt über dem Bett.,hängt,574.9450263261795,None,577.211893248558,578.2118480205536,590.1458012342453,None,591.5459089279175,592.5460269451141,./data/Subject_06/Session_00/Exp_data/2020_Jul_10_1524/rec_QA_run_03_block_000_trial_002.wav,06,00,Dutch,A2,True,False,True,False,False,True,True,True,True,True,True,True,No,3,No,No,No,No,2020_Jul_10_1524,nibs_stage_1,3.2.3,60.020406031370335,
3,0,3,0,0,0,0,0,3,0,3,0,,,,,,,,,,,,,,,,,,,,,,,,,Listen to the question and speak out your answer!,594.6128151416779,None,594.5961041688919,596.5965020656586,"Der Arzt sagt, mein Knie ist in Ordnung, aber meine Beine scheinen gebrochen zu sein.",scheinen,595.9961423158645,601.2633590698242,601.6635033369064,None,611.1971573114395,None,612.5972280502319,613.5972089767456,./data/Subject_06/Session_00/Exp_data/2020_Jul_10_1524/rec_QA_run_03_block_000_trial_003.wav,06,00,Dutch,A2,True,False,True,False,False,True,True,True,True,True,True,True,No,3,No,No,No,No,2020_Jul_10_1524,nibs_stage_1,3.2.3,60.020406031370335,
3,0,3,0,0,0,0,0,4,0,4,0,,,,,,,,,,,,,,,,,,,,,,,,,Listen to the question and speak out your answer!,615.6639831066132,None,615.6472862005234,617.647509098053,Die Gäste gratulieren dem jungen Paar herzlich zur Hochzeit.,gratulieren,617.047410416603,None,621.214366364479,None,632.2316743612289,None,633.6318180561066,634.631758928299,./data/Subject_06/Session_00/Exp_data/2020_Jul_10_1524/rec_QA_run_03_block_000_trial_004.wav,06,00,Dutch,A2,True,False,True,False,False,True,True,True,True,True,True,True,No,3,No,No,No,No,2020_Jul_10_1524,nibs_stage_1,3.2.3,60.020406031370335,
3,0,3,0,0,0,0,0,5,0,5,0,,,,,,,,,,,,,,,,,,,,,,,,,Listen to the question and speak out your answer!,636.6988079547882,None,636.6818579196929,638.681636095047,Jeden Tag lesen wir die Zeitung.,lesen,638.0816103696823,640.2983901500702,640.7150882959365,641.7152149677277,653.2827133417129,None,654.6828100681305,655.6827659606934,./data/Subject_06/Session_00/Exp_data/2020_Jul_10_1524/rec_QA_run_03_block_000_trial_005.wav,06,00,Dutch,A2,True,False,True,False,False,True,True,True,True,True,True,True,No,3,No,No,No,No,2020_Jul_10_1524,nibs_stage_1,3.2.3,60.020406031370335,
3,0,3,0,0,0,0,0,6,0,6,0,,,,,,,,,,,,,,,,,,,,,,,,,Listen to the question and speak out your answer!,657.7498440742493,None,657.7328431844711,659.7330410480499,Wir freuen uns sehr über Ihren Besuch.,freuen,659.0997542619705,661.483108997345,661.8998393297195,None,674.3005153417587,None,675.7005479335785,676.7005400657654,./data/Subject_06/Session_00/Exp_data/2020_Jul_10_1524/rec_QA_run_03_block_000_trial_006.wav,06,00,Dutch,A2,True,False,True,False,False,True,True,True,True,True,True,True,No,3,No,No,No,No,2020_Jul_10_1524,nibs_stage_1,3.2.3,60.020406031370335,
3,0,3,0,0,0,0,0,7,0,7,0,,,,,,,,,,,,,,,,,,,,,,,,,Listen to the question and speak out your answer!,678.7840631008148,None,678.7673921823501,680.7674770355225,"Wenn es am Sonntag Morgen regnet, bleibt Franz den ganzen Tag im Bett.",bleibt,680.1507744073867,684.2676849365234,684.6844043016433,None,695.3515822172164,None,696.7517230510712,697.7517340183258,./data/Subject_06/Session_00/Exp_data/2020_Jul_10_1524/rec_QA_run_03_block_000_trial_007.wav,06,00,Dutch,A2,True,False,True,False,False,True,True,True,True,True,True,True,No,3,No,No,No,No,2020_Jul_10_1524,nibs_stage_1,3.2.3,60.020406031370335,
3,0,3,0,0,0,0,0,8,0,8,0,,,,,,,,,,,,,,,,,,,,,,,,,Listen to the question and speak out your answer!,699.8352861404419,None,699.8184962511062,701.818685054779,Dieser Bus bringt dich zum Strand.,bringt,701.2018973112106,703.2187120914459,703.6353623151779,None,716.4027003526687,None,717.8027760982513,718.8028490543365,./data/Subject_06/Session_00/Exp_data/2020_Jul_10_1524/rec_QA_run_03_block_000_trial_008.wav,06,00,Dutch,A2,True,False,True,False,False,True,True,True,True,True,True,True,No,3,No,No,No,No,2020_Jul_10_1524,nibs_stage_1,3.2.3,60.020406031370335,
3,0,3,0,0,0,0,0,9,0,9,0,,,,,,,,,,,,,,,,,,,,,,,,,Listen to the question and speak out your answer!,720.8863570690155,None,720.8696141481399,722.869882106781,Durch die Klimaveränderung steigen die Temperaturen auf der Erde.,steigen,722.2530104398727,726.3699021339417,726.7699703454971,None,737.4537274122238,None,738.8539011478424,739.8541369438171,./data/Subject_06/Session_00/Exp_data/2020_Jul_10_1524/rec_QA_run_03_block_000_trial_009.wav,06,00,Dutch,A2,True,False,True,False,False,True,True,True,True,True,True,True,No,3,No,No,No,No,2020_Jul_10_1524,nibs_stage_1,3.2.3,60.020406031370335,
3,0,3,0,0,0,0,0,10,0,10,0,,,,,,,,,,,,,,,,,,,,,,,,,Listen to the question and speak out your answer!,741.937539100647,None,741.9207802057266,743.9208650588989,Peter interessiert sich sehr für Geschichte.,interessiert,743.3041662454605,None,746.4209584474563,747.4210259914398,758.5049313783645,None,759.9049949645996,760.9050481319427,./data/Subject_06/Session_00/Exp_data/2020_Jul_10_1524/rec_QA_run_03_block_000_trial_010.wav,06,00,Dutch,A2,True,False,True,False,False,True,True,True,True,True,True,True,No,3,No,No,No,No,2020_Jul_10_1524,nibs_stage_1,3.2.3,60.020406031370335,
3,0,3,0,0,0,0,0,11,0,11,0,,,,,,,,,,,,,,,,,,,,,,,,,Listen to the question and speak out your answer!,762.9893810749054,None,762.9717931985855,764.971941947937,Das Herz kann Blut durch den Körper pumpen.,pumpen,764.3551573038101,766.9722049236298,767.3722333192825,None,779.5560254335403,None,780.9561579227448,781.9561920166016,./data/Subject_06/Session_00/Exp_data/2020_Jul_10_1524/rec_QA_run_03_block_000_trial_011.wav,06,00,Dutch,A2,True,False,True,False,False,True,True,True,True,True,True,True,No,3,No,No,No,No,2020_Jul_10_1524,nibs_stage_1,3.2.3,60.020406031370335,
3,0,3,0,0,0,0,0,12,0,12,0,,,,,,,,,,,,,,,,,,,,,,,,,Listen to the question and speak out your answer!,784.02277302742,None,784.0065189361571,786.0063669681549,"Ich berichtete der Polizei alles, was ich gesehen hatte.",berichtete,785.4063982248306,None,789.256587433815,None,800.6071364164352,801.6071510314941,802.0071361064911,803.0073029994965,./data/Subject_06/Session_00/Exp_data/2020_Jul_10_1524/rec_QA_run_03_block_000_trial_012.wav,06,00,Dutch,A2,True,False,True,False,False,True,True,True,True,True,True,True,No,3,No,No,No,No,2020_Jul_10_1524,nibs_stage_1,3.2.3,60.020406031370335,
3,0,3,0,0,0,0,0,13,0,13,0,,,,,,,,,,,,,,,,,,,,,,,,,Listen to the question and speak out your answer!,805.0405850410461,None,805.0240456342697,807.024080991745,Die Mutter rührt in ihren Töpfen und Pfannen.,rührt,806.4074563264846,809.0575339794159,809.4739832162857,810.4741139411926,821.6080903291702,822.6081430912018,823.0082840919495,824.0080959796906,./data/Subject_06/Session_00/Exp_data/2020_Jul_10_1524/rec_QA_run_03_block_000_trial_013.wav,06,00,Dutch,A2,True,False,True,False,False,True,True,True,True,True,True,True,No,3,No,No,No,No,2020_Jul_10_1524,nibs_stage_1,3.2.3,60.020406031370335,
3,0,3,0,0,0,0,0,14,0,14,0,,,,,,,,,,,,,,,,,,,,,,,,,Listen to the question and speak out your answer!,826.0916740894318,None,826.0749182939529,828.0750441551208,Abends essen wir meistens kalt.,essen,827.4750162839889,None,829.8752583742141,830.8752429485321,842.6758453130722,None,844.0761470794678,845.0759501457214,./data/Subject_06/Session_00/Exp_data/2020_Jul_10_1524/rec_QA_run_03_block_000_trial_014.wav,06,00,Dutch,A2,True,False,True,False,False,True,True,True,True,True,True,True,No,3,No,No,No,No,2020_Jul_10_1524,nibs_stage_1,3.2.3,60.020406031370335,
3,0,3,0,0,0,0,0,15,0,15,0,,,,,,,,,,,,,,,,,,,,,,,,,Listen to the question and speak out your answer!,847.1433210372925,None,847.1260273694992,849.1261610984802,Linda packt immer viel zu viele Kleidung in ihren Koffer.,packt,848.5093683481216,851.8596661090851,852.2764302968978,None,863.71027033329,None,865.1103241443634,866.1104290485382,./data/Subject_06/Session_00/Exp_data/2020_Jul_10_1524/rec_QA_run_03_block_000_trial_015.wav,06,00,Dutch,A2,True,False,True,False,False,True,True,True,True,True,True,True,No,3,No,No,No,No,2020_Jul_10_1524,nibs_stage_1,3.2.3,60.020406031370335,
3,0,3,0,0,0,0,0,16,0,16,0,,,,,,,,,,,,,,,,,,,,,,,,,Listen to the question and speak out your answer!,868.1771140098572,None,868.1605130195617,870.1606209278107,Das Friedensabkommen hat den Krieg beendet.,beendet,869.5438913583755,None,872.5107924222946,None,884.7446972608566,None,886.1615641117096,None,./data/Subject_06/Session_00/Exp_data/2020_Jul_10_1524/rec_QA_run_03_block_000_trial_016.wav,06,00,Dutch,A2,True,False,True,False,False,True,True,True,True,True,True,True,No,3,No,No,No,No,2020_Jul_10_1524,nibs_stage_1,3.2.3,60.020406031370335,
3,0,3,0,0,0,0,0,17,0,17,0,,,,,,,,,,,,,,,,,,,,,,,,,Listen to the question and speak out your answer!,889.228434085846,None,889.2115953207016,891.228385925293,Beim Spinat und Kohl wird man die Blätter essen.,essen,890.6116172552108,None,893.7785312414169,None,905.8124744176864,None,907.2292940616608,None,./data/Subject_06/Session_00/Exp_data/2020_Jul_10_1524/rec_QA_run_03_block_000_trial_017.wav,06,00,Dutch,A2,True,False,True,False,False,True,True,True,True,True,True,True,No,3,No,No,No,No,2020_Jul_10_1524,nibs_stage_1,3.2.3,60.020406031370335,
3,0,3,0,0,0,0,0,18,0,18,0,,,,,,,,,,,,,,,,,,,,,,,,,Listen to the question and speak out your answer!,910.2977440357208,None,910.279356265068,912.2961399555206,Ein junges Ehepaar ist gerade in das neue Haus neben unserem eingezogen.,eingezogen,911.6794564008712,916.2299909591675,916.6130222558975,None,926.8803083181381,None,928.2970249652863,None,./data/Subject_06/Session_00/Exp_data/2020_Jul_10_1524/rec_QA_run_03_block_000_trial_018.wav,06,00,Dutch,A2,True,False,True,False,False,True,True,True,True,True,True,True,No,3,No,No,No,No,2020_Jul_10_1524,nibs_stage_1,3.2.3,60.020406031370335,
3,0,3,0,0,0,0,0,19,0,19,0,,,,,,,,,,,,,,,,,,,,,,,,,Listen to the question and speak out your answer!,931.3482120037079,None,931.3304899692534,933.3472859859467,"Diese Dame ist US-Bürgerin, wurde aber in Deutschland geboren.",geboren,932.7305862188339,936.7807929515839,937.1641473054885,938.1807861328125,947.931389260292,None,949.3482420444489,None,./data/Subject_06/Session_00/Exp_data/2020_Jul_10_1524/rec_QA_run_03_block_000_trial_019.wav,06,00,Dutch,A2,True,False,True,False,False,True,True,True,True,True,True,True,No,3,No,No,No,No,2020_Jul_10_1524,nibs_stage_1,3.2.3,60.020406031370335,
3,0,3,0,0,0,0,0,20,0,20,0,,,,,,,,,,,,,,,,,,,,,,,,,Listen to the question and speak out your answer!,952.3987970352173,None,952.3816259860992,954.3983850479126,Die Polizei sammelte alle verfügbaren Informationen.,sammelte,953.7817923307418,None,957.8485953092575,None,968.9825083494186,969.9992110729218,970.3993320465088,None,./data/Subject_06/Session_00/Exp_data/2020_Jul_10_1524/rec_QA_run_03_block_000_trial_020.wav,06,00,Dutch,A2,True,False,True,False,False,True,True,True,True,True,True,True,No,3,No,No,No,No,2020_Jul_10_1524,nibs_stage_1,3.2.3,60.020406031370335,
3,0,3,0,0,0,0,0,21,0,21,0,,,,,,,,,,,,,,,,,,,,,,,,,Listen to the question and speak out your answer!,973.449590921402,None,973.4160436868667,975.4494919776917,Der Ton macht die Musik.,macht,974.8329214334487,None,976.8662454366684,None,990.0336333990097,None,991.4503231048584,None,./data/Subject_06/Session_00/Exp_data/2020_Jul_10_1524/rec_QA_run_03_block_000_trial_021.wav,06,00,Dutch,A2,True,False,True,False,False,True,True,True,True,True,True,True,No,3,No,No,No,No,2020_Jul_10_1524,nibs_stage_1,3.2.3,60.020406031370335,
3,0,3,0,0,0,0,0,22,0,22,0,,,,,,,,,,,,,,,,,,,,,,,,,Listen to the question and speak out your answer!,994.4678270816803,None,994.4505580425262,996.4672710895538,Die Bergsteiger sind in die Wand eingestiegen.,eingestiegen,995.85058324337,998.4009921550751,998.7840754270553,None,1011.0513962984085,1012.0681459903717,1012.4681241512299,None,./data/Subject_06/Session_00/Exp_data/2020_Jul_10_1524/rec_QA_run_03_block_000_trial_022.wav,06,00,Dutch,A2,True,False,True,False,False,True,True,True,True,True,True,True,No,3,No,No,No,No,2020_Jul_10_1524,nibs_stage_1,3.2.3,60.020406031370335,
3,0,3,0,0,0,0,0,23,0,23,0,,,,,,,,,,,,,,,,,,,,,,,,,Listen to the question and speak out your answer!,1015.5186641216278,None,1015.5016799926757,1017.518434047699,"Das Buch war witzig, ich habe stundenlang gelacht.",gelacht,1016.9016904115676,None,1020.3018774271011,None,1032.1025082349777,None,1033.5192470550537,None,./data/Subject_06/Session_00/Exp_data/2020_Jul_10_1524/rec_QA_run_03_block_000_trial_023.wav,06,00,Dutch,A2,True,False,True,False,False,True,True,True,True,True,True,True,No,3,No,No,No,No,2020_Jul_10_1524,nibs_stage_1,3.2.3,60.020406031370335,
3,0,3,0,0,0,0,0,24,0,24,0,,,,,,,,,,,,,,,,,,,,,,,,,Listen to the question and speak out your answer!,1036.5867121219635,None,1036.5527058601378,1038.5862140655518,"Ich kann es kaum abwarten, das Video meiner Hochzeit zu sehen.",abwarten,1037.9694883108139,1041.6530039310455,1042.036357331276,None,1053.1702682256698,None,1054.5870230197906,None,./data/Subject_06/Session_00/Exp_data/2020_Jul_10_1524/rec_QA_run_03_block_000_trial_024.wav,06,00,Dutch,A2,True,False,True,False,False,True,True,True,True,True,True,True,No,3,No,No,No,No,2020_Jul_10_1524,nibs_stage_1,3.2.3,60.020406031370335,
3,0,3,0,0,0,0,0,,,,,,,,,,,,,,,,,,1058.6040151119232,None,,,,,,,,,,,,,,,,,,,,,,,,,,06,00,Dutch,A2,True,False,True,False,False,True,True,True,True,True,True,True,No,3,No,No,No,No,2020_Jul_10_1524,nibs_stage_1,3.2.3,60.020406031370335,
3,0,3,0,1,0,1,0,0,0,0,0,,,,,,,,,,,,,,,,,,,,,,,,,Listen to the question and speak out your answer!,1122.2909610271454,None,1122.2738865375518,1124.290874004364,"Hier gibt es viele Tiere, die auf verschiedenen Kontinenten leben.",leben,1123.6406702280044,None,1128.1076773881912,None,1138.8415474176406,None,1140.258222103119,None,./data/Subject_06/Session_00/Exp_data/2020_Jul_10_1524/rec_QA_run_03_block_001_trial_000.wav,06,00,Dutch,A2,True,False,True,False,False,True,True,True,True,True,True,True,No,3,No,No,No,No,2020_Jul_10_1524,nibs_stage_1,3.2.3,60.020406031370335,
3,0,3,0,1,0,1,0,1,0,1,0,,,,,,,,,,,,,,,,,,,,,,,,,Listen to the question and speak out your answer!,1143.3091070652008,None,1143.2917059421538,1145.308573961258,Bewegung und gesunde Ernährung gehören zu einer gesunden Lebensweise.,gehören,1144.691875386238,None,1149.5254544496536,None,1159.8927082300186,None,1161.3094191551208,None,./data/Subject_06/Session_00/Exp_data/2020_Jul_10_1524/rec_QA_run_03_block_001_trial_001.wav,06,00,Dutch,A2,True,False,True,False,False,True,True,True,True,True,True,True,No,3,No,No,No,No,2020_Jul_10_1524,nibs_stage_1,3.2.3,60.020406031370335,
3,0,3,0,1,0,1,0,2,0,2,0,,,,,,,,,,,,,,,,,,,,,,,,,Listen to the question and speak out your answer!,1164.359642982483,None,1164.3261336565017,1166.3596930503845,"Wir bleiben heute zu Hause, weil wir zu müde sind.",bleiben,1165.7430013895034,1169.0264110565186,1169.4097544431686,1170.4264810085297,1180.9437233686447,1181.9604110717773,1182.3604619503021,None,./data/Subject_06/Session_00/Exp_data/2020_Jul_10_1524/rec_QA_run_03_block_001_trial_002.wav,06,00,Dutch,A2,True,False,True,False,False,True,True,True,True,True,True,True,No,3,No,No,No,No,2020_Jul_10_1524,nibs_stage_1,3.2.3,60.020406031370335,
3,0,3,0,1,0,1,0,3,0,3,0,,,,,,,,,,,,,,,,,,,,,,,,,Listen to the question and speak out your answer!,1185.37739610672,None,1185.360573863983,1187.3773620128632,Alle Schüler müssen die Vorschrift halten.,halten,1186.7606922864913,1189.177472114563,1189.5608593702316,1190.5774700641632,1201.9616743803024,None,1203.3782229423523,None,./data/Subject_06/Session_00/Exp_data/2020_Jul_10_1524/rec_QA_run_03_block_001_trial_003.wav,06,00,Dutch,A2,True,False,True,False,False,True,True,True,True,True,True,True,No,3,No,No,No,No,2020_Jul_10_1524,nibs_stage_1,3.2.3,60.020406031370335,
3,0,3,0,1,0,1,0,4,0,4,0,,,,,,,,,,,,,,,,,,,,,,,,,Listen to the question and speak out your answer!,1206.4120290279388,None,1206.3950187444686,1208.4118220806122,Aus Fehlern kann man lernen.,lernen,1207.795121359825,None,1209.9285642385482,None,1222.9792773008346,None,1224.3961341381073,None,./data/Subject_06/Session_00/Exp_data/2020_Jul_10_1524/rec_QA_run_03_block_001_trial_004.wav,06,00,Dutch,A2,True,False,True,False,False,True,True,True,True,True,True,True,No,3,No,No,No,No,2020_Jul_10_1524,nibs_stage_1,3.2.3,60.020406031370335,
3,0,3,0,1,0,1,0,5,0,5,0,,,,,,,,,,,,,,,,,,,,,,,,,Listen to the question and speak out your answer!,1227.4468841552734,None,1227.4128007173538,1229.4462730884552,Sie hat den Kuchen in einer runden Form gebacken.,gebacken,1228.8296794176101,1231.6800060272217,1232.0629972696304,1233.0797979831696,1244.0304013967514,None,1245.4471170902252,None,./data/Subject_06/Session_00/Exp_data/2020_Jul_10_1524/rec_QA_run_03_block_001_trial_005.wav,06,00,Dutch,A2,True,False,True,False,False,True,True,True,True,True,True,True,No,3,No,No,No,No,2020_Jul_10_1524,nibs_stage_1,3.2.3,60.020406031370335,
3,0,3,0,1,0,1,0,6,0,6,0,,,,,,,,,,,,,,,,,,,,,,,,,Listen to the question and speak out your answer!,1248.46413397789,None,1248.4472690582274,1250.4640491008759,Ich bin von New York nach München geflogen.,geflogen,1249.8473333597183,None,1252.747495341301,None,1265.0481752634048,1266.0648860931396,1266.4649000167847,None,./data/Subject_06/Session_00/Exp_data/2020_Jul_10_1524/rec_QA_run_03_block_001_trial_006.wav,06,00,Dutch,A2,True,False,True,False,False,True,True,True,True,True,True,True,No,3,No,No,No,No,2020_Jul_10_1524,nibs_stage_1,3.2.3,60.020406031370335,
3,0,3,0,1,0,1,0,7,0,7,0,,,,,,,,,,,,,,,,,,,,,,,,,Listen to the question and speak out your answer!,1269.5157351493835,None,1269.4982899188994,1271.5151529312134,"Die Schneiderin änderte das Kleid, weil das Kleid zu groß ist.",änderte,1270.8984593629837,1274.8486731052399,1275.231938290596,None,1286.0993453741073,None,1287.5160269737244,None,./data/Subject_06/Session_00/Exp_data/2020_Jul_10_1524/rec_QA_run_03_block_001_trial_007.wav,06,00,Dutch,A2,True,False,True,False,False,True,True,True,True,True,True,True,No,3,No,No,No,No,2020_Jul_10_1524,nibs_stage_1,3.2.3,60.020406031370335,
3,0,3,0,1,0,1,0,8,0,8,0,,,,,,,,,,,,,,,,,,,,,,,,,Listen to the question and speak out your answer!,1290.5672249794006,None,1290.5495029449462,1292.5662801265717,"Entschuldigung, können Sie mir ein Taxi rufen?",rufen,1291.9495863199234,1294.7331290245056,1295.1164924383163,None,1307.1504034280777,None,1308.5671660900116,None,./data/Subject_06/Session_00/Exp_data/2020_Jul_10_1524/rec_QA_run_03_block_001_trial_008.wav,06,00,Dutch,A2,True,False,True,False,False,True,True,True,True,True,True,True,No,3,No,No,No,No,2020_Jul_10_1524,nibs_stage_1,3.2.3,60.020406031370335,
3,0,3,0,1,0,1,0,9,0,9,0,,,,,,,,,,,,,,,,,,,,,,,,,Listen to the question and speak out your answer!,1311.6177670955658,None,1311.6005738735198,1313.6174380779266,"Thomas hat schon so kurze Haare, er muss sich nicht kämmen.",kämmen,1313.0007464170455,None,1316.8010613203048,None,1328.2015423059463,None,1329.6184260845184,None,./data/Subject_06/Session_00/Exp_data/2020_Jul_10_1524/rec_QA_run_03_block_001_trial_009.wav,06,00,Dutch,A2,True,False,True,False,False,True,True,True,True,True,True,True,No,3,No,No,No,No,2020_Jul_10_1524,nibs_stage_1,3.2.3,60.020406031370335,
3,0,3,0,1,0,1,0,10,0,10,0,,,,,,,,,,,,,,,,,,,,,,,,,Listen to the question and speak out your answer!,1332.6692171096802,None,1332.6517358779906,1334.6685860157013,Die Wissenschaftler aus der Physik heißen Physiker.,heißen,1334.0519742250442,None,1337.6521324396133,None,1349.2527233839035,None,1350.6693880558014,None,./data/Subject_06/Session_00/Exp_data/2020_Jul_10_1524/rec_QA_run_03_block_001_trial_010.wav,06,00,Dutch,A2,True,False,True,False,False,True,True,True,True,True,True,True,No,3,No,No,No,No,2020_Jul_10_1524,nibs_stage_1,3.2.3,60.020406031370335,
3,0,3,0,1,0,1,0,11,0,11,0,,,,,,,,,,,,,,,,,,,,,,,,,Listen to the question and speak out your answer!,1353.719808101654,None,1353.7029858589171,1355.7197489738464,Wie lange muss Pat heute im Firma noch arbeiten?,arbeiten,1355.1029652833938,1357.9201400279999,1358.2698892831802,1359.286523103714,1370.303878235817,None,1371.7206361293793,None,./data/Subject_06/Session_00/Exp_data/2020_Jul_10_1524/rec_QA_run_03_block_001_trial_011.wav,06,00,Dutch,A2,True,False,True,False,False,True,True,True,True,True,True,True,No,3,No,No,No,No,2020_Jul_10_1524,nibs_stage_1,3.2.3,60.020406031370335,
3,0,3,0,1,0,1,0,12,0,12,0,,,,,,,,,,,,,,,,,,,,,,,,,Listen to the question and speak out your answer!,1374.788087129593,None,1374.7540999412536,1376.7875819206238,Zum Geburtstag hat ihm Oma ein Buch mit vielen Bildern geschenkt.,geschenkt,1376.1708523511886,1379.9879820346832,1380.3377494096756,None,1391.3717014074325,1392.3884539604187,1392.788437128067,None,./data/Subject_06/Session_00/Exp_data/2020_Jul_10_1524/rec_QA_run_03_block_001_trial_012.wav,06,00,Dutch,A2,True,False,True,False,False,True,True,True,True,True,True,True,No,3,No,No,No,No,2020_Jul_10_1524,nibs_stage_1,3.2.3,60.020406031370335,
3,0,3,0,1,0,1,0,13,0,13,0,,,,,,,,,,,,,,,,,,,,,,,,,Listen to the question and speak out your answer!,1395.8226051330566,None,1395.7885728836059,1397.8219630718231,Ich kann nicht mit dem Auto fahren.,fahren,1397.205348420143,None,1399.6054803609848,None,1412.4060823202133,None,1413.822909116745,None,./data/Subject_06/Session_00/Exp_data/2020_Jul_10_1524/rec_QA_run_03_block_001_trial_013.wav,06,00,Dutch,A2,True,False,True,False,False,True,True,True,True,True,True,True,No,3,No,No,No,No,2020_Jul_10_1524,nibs_stage_1,3.2.3,60.020406031370335,
3,0,3,0,1,0,1,0,14,0,14,0,,,,,,,,,,,,,,,,,,,,,,,,,Listen to the question and speak out your answer!,1416.839859008789,None,1416.8063985586166,1418.8398530483246,"Die Augen meines Sohnes glänzten, als er das Geschenk sah.",sah,1418.223069357872,1421.7066929340363,1422.090044426918,None,1433.4240133047103,1434.4407930374146,1434.8407349586487,None,./data/Subject_06/Session_00/Exp_data/2020_Jul_10_1524/rec_QA_run_03_block_001_trial_014.wav,06,00,Dutch,A2,True,False,True,False,False,True,True,True,True,True,True,True,No,3,No,No,No,No,2020_Jul_10_1524,nibs_stage_1,3.2.3,60.020406031370335,
3,0,3,0,1,0,1,0,15,0,15,0,,,,,,,,,,,,,,,,,,,,,,,,,Listen to the question and speak out your answer!,1437.8576431274414,None,1437.8243085622787,1439.8576591014862,Das Auto wurde in Deutschland hergestellt.,hergestellt,1439.240956234932,None,1442.1744612932205,None,1454.44180123806,None,1455.8585269451141,None,./data/Subject_06/Session_00/Exp_data/2020_Jul_10_1524/rec_QA_run_03_block_001_trial_015.wav,06,00,Dutch,A2,True,False,True,False,False,True,True,True,True,True,True,True,No,3,No,No,No,No,2020_Jul_10_1524,nibs_stage_1,3.2.3,60.020406031370335,
3,0,3,0,1,0,1,0,16,0,16,0,,,,,,,,,,,,,,,,,,,,,,,,,Listen to the question and speak out your answer!,1458.8920691013336,None,1458.858672952652,1460.8921461105347,"In Neuseeland und Irland ist es so grün, weil es besonders oft regnet.",regnet,1460.2421154260635,None,1465.0090913057327,1466.0257971286774,1475.443067240715,None,1476.859678030014,None,./data/Subject_06/Session_00/Exp_data/2020_Jul_10_1524/rec_QA_run_03_block_001_trial_016.wav,06,00,Dutch,A2,True,False,True,False,False,True,True,True,True,True,True,True,No,3,No,No,No,No,2020_Jul_10_1524,nibs_stage_1,3.2.3,60.020406031370335,
3,0,3,0,1,0,1,0,17,0,17,0,,,,,,,,,,,,,,,,,,,,,,,,,Listen to the question and speak out your answer!,1479.9271669387817,None,1479.8931370735168,1481.9266130924225,Kann ich mich um das Stipendium bewerben?,bewerben,1481.2765702486038,None,1483.943412232399,None,1496.477408337593,None,1497.8941531181335,None,./data/Subject_06/Session_00/Exp_data/2020_Jul_10_1524/rec_QA_run_03_block_001_trial_017.wav,06,00,Dutch,A2,True,False,True,False,False,True,True,True,True,True,True,True,No,3,No,No,No,No,2020_Jul_10_1524,nibs_stage_1,3.2.3,60.020406031370335,
3,0,3,0,1,0,1,0,18,0,18,0,,,,,,,,,,,,,,,,,,,,,,,,,Listen to the question and speak out your answer!,1500.9616191387177,None,1500.9276209831237,1502.9611840248108,Jetzt will ich eine Vorstellung machen.,machen,1502.3110453367233,None,1504.844505238533,1505.8612530231476,1517.511812376976,None,1518.928619146347,None,./data/Subject_06/Session_00/Exp_data/2020_Jul_10_1524/rec_QA_run_03_block_001_trial_018.wav,06,00,Dutch,A2,True,False,True,False,False,True,True,True,True,True,True,True,No,3,No,No,No,No,2020_Jul_10_1524,nibs_stage_1,3.2.3,60.020406031370335,
3,0,3,0,1,0,1,0,19,0,19,0,,,,,,,,,,,,,,,,,,,,,,,,,Listen to the question and speak out your answer!,1521.9961440563202,None,1521.9621020317077,1523.995579957962,Mein Vater arbeitet in einer Papierfabrik.,arbeitet,1523.3788494348526,1526.2289259433746,1526.6123642206192,1527.6290860176086,1538.5796972990036,None,1539.9964261054993,None,./data/Subject_06/Session_00/Exp_data/2020_Jul_10_1524/rec_QA_run_03_block_001_trial_019.wav,06,00,Dutch,A2,True,False,True,False,False,True,True,True,True,True,True,True,No,3,No,No,No,No,2020_Jul_10_1524,nibs_stage_1,3.2.3,60.020406031370335,
3,0,3,0,1,0,1,0,20,0,20,0,,,,,,,,,,,,,,,,,,,,,,,,,Listen to the question and speak out your answer!,1543.0305030345917,None,1542.9965520858764,1545.0301351547241,"Das verstehe ich nicht, was meinst du damit?",meinst,1544.4133323907852,None,1547.4801832914352,None,1559.614167380333,None,1561.0308871269226,None,./data/Subject_06/Session_00/Exp_data/2020_Jul_10_1524/rec_QA_run_03_block_001_trial_020.wav,06,00,Dutch,A2,True,False,True,False,False,True,True,True,True,True,True,True,No,3,No,No,No,No,2020_Jul_10_1524,nibs_stage_1,3.2.3,60.020406031370335,
3,0,3,0,1,0,1,0,21,0,21,0,,,,,,,,,,,,,,,,,,,,,,,,,Listen to the question and speak out your answer!,1564.064414024353,None,1564.0310109615325,1566.064512014389,Marie mag lieber Sport.,mag,1565.447816300392,1567.2312459945679,1567.5812412977218,None,1580.6486152887344,None,1582.0653800964355,None,./data/Subject_06/Session_00/Exp_data/2020_Jul_10_1524/rec_QA_run_03_block_001_trial_021.wav,06,00,Dutch,A2,True,False,True,False,False,True,True,True,True,True,True,True,No,3,No,No,No,No,2020_Jul_10_1524,nibs_stage_1,3.2.3,60.020406031370335,
3,0,3,0,1,0,1,0,22,0,22,0,,,,,,,,,,,,,,,,,,,,,,,,,Listen to the question and speak out your answer!,1585.098981142044,None,1585.0654929637908,1587.0989649295807,Simon hat riesige Bilder gemalt.,gemalt,1586.448920416832,None,1589.049084353447,1590.0658209323883,1601.6497582674026,None,1603.0665080547333,None,./data/Subject_06/Session_00/Exp_data/2020_Jul_10_1524/rec_QA_run_03_block_001_trial_022.wav,06,00,Dutch,A2,True,False,True,False,False,True,True,True,True,True,True,True,No,3,No,No,No,No,2020_Jul_10_1524,nibs_stage_1,3.2.3,60.020406031370335,
3,0,3,0,1,0,1,0,23,0,23,0,,,,,,,,,,,,,,,,,,,,,,,,,Listen to the question and speak out your answer!,1606.1340370178223,None,1606.1000429153441,1608.133453130722,"Man nennt Klima-Wandel , dass die Temperaturen auf unserer Erde steigen.",steigen,1607.483409333229,None,1612.317003417015,None,1622.6842602968215,1623.7009649276733,1624.1009809970856,None,./data/Subject_06/Session_00/Exp_data/2020_Jul_10_1524/rec_QA_run_03_block_001_trial_023.wav,06,00,Dutch,A2,True,False,True,False,False,True,True,True,True,True,True,True,No,3,No,No,No,No,2020_Jul_10_1524,nibs_stage_1,3.2.3,60.020406031370335,
3,0,3,0,1,0,1,0,24,0,24,0,,,,,,,,,,,,,,,,,,,,,,,,,Listen to the question and speak out your answer!,1627.167876958847,None,1627.1344460010528,1629.1680700778961,Wir essen Salat oft ungekocht.,essen,1628.5514814138412,1630.8013219833374,1631.184685397148,None,1643.7520562887191,None,1645.1687819957733,None,./data/Subject_06/Session_00/Exp_data/2020_Jul_10_1524/rec_QA_run_03_block_001_trial_024.wav,06,00,Dutch,A2,True,False,True,False,False,True,True,True,True,True,True,True,No,3,No,No,No,No,2020_Jul_10_1524,nibs_stage_1,3.2.3,60.020406031370335,
