run.thisRepN,run.thisTrialN,run.thisN,run.thisIndex,QA_block.thisRepN,QA_block.thisTrialN,QA_block.thisN,QA_block.thisIndex,QA_trial.thisRepN,QA_trial.thisTrialN,QA_trial.thisN,QA_trial.thisIndex,fade_in_text.text,fade_in_text.started,fade_in_text.stopped,RS_intro_title.started,RS_intro_title.stopped,RS_intro_text.text,RS_intro_text.started,RS_intro_text.stopped,RS_intro_audio.started,RS_intro_audio.stopped,RS_rec_text.text,RS_rec_text.started,RS_rec_text.stopped,Pause_cont.started,Pause_cont.stopped,QA_intro_title.started,QA_intro_title.stopped,QA_intro_text.text,QA_intro_text.started,QA_intro_text.stopped,QA_intro_audio.started,QA_intro_audio.stopped,QA_intro_cont.started,QA_intro_cont.stopped,QA_rec_text.text,QA_rec_text.started,QA_rec_text.stopped,QA_rec_beep_hint.started,QA_rec_beep_hint.stopped,QA_rec_question.sen_text,QA_rec_question.cen_text,QA_rec_question.started,QA_rec_question.stopped,QA_rec_beep_start.started,QA_rec_beep_start.stopped,QA_rec_beep_end.started,QA_rec_beep_end.stopped,QA_rec_break.started,QA_rec_break.stopped,filename,participant,session,First language,German level,Full_screen,Instruction,Intro,Artifact,Cali_pre,Fade_in_out,Artifact_within,Resting_State,QA,Pause,Cali_post,End,Breakpoint_Cali_pre_trial,Breakpoint_Run,Breakpoint_RS_block,Breakpoint_QA_block,Breakpoint_QA_trial,Breakpoint_Cali_post_trial,date,expName,psychopyVersion,frameRate,
0,0,0,0,0,0,0,0,0,0,0,0,Please remain seated until further instruction via the earphone.,51.23218297958374,None,260.67655181884766,None," - Task: Keep seated and relaxed with either      
             opening or closing eyes                  
 - Beep sound with decreasing pitch: Block finish 
",260.67655181884766,None,260.6761807918549,None,"Please keep relaxed and open your eyes.
Note: Blinking is allowed.",283.694571018219,463.7038128376007,467.07070803642273,None,504.6400189399719,544.6417429447174," - Task: Listen to the question& Speak out answer 
 - Melodious beep sound: Trial start              
 - Silent sound (blank): censored word            
 - Beep sound with increasing pitch: Rec. start   
 - Beep sound with decreasing pitch: Rec. finish  
",504.6400189399719,544.6417429447174,504.6381970405579,None,544.0250468254089,None,Listen to the question and speak out your answer!,548.358738899231,None,548.3407008171082,550.3420279026031,Das Handbuch liefert eine Beschreibung des Geräts.,liefert,549.7420636177063,None,553.108871793747,None,564.9428256511688,None,566.3430778980255,567.3429570198059,./data/Subject_06/Session_00/Exp_data/2020_Jul_10_1317/rec_QA_run_00_block_000_trial_000.wav,06,00,Dutch,A2,True,False,True,False,False,True,True,True,True,True,True,True,No,No,No,No,No,No,2020_Jul_10_1317,nibs_stage_1,3.2.3,59.9372947575102,
0,0,0,0,0,0,0,0,1,0,1,0,,,,,,,,,,,,,,,,,,,,,,,,,Listen to the question and speak out your answer!,569.3930330276489,None,569.3755728721619,571.3762788772583,"Manchmal glaube ich, ich bin zu pessimistisch.",glaube,570.7764287948609,None,574.1597426891327,None,585.9772797584534,586.977324962616,587.3773338794708,588.3773868083954,./data/Subject_06/Session_00/Exp_data/2020_Jul_10_1317/rec_QA_run_00_block_000_trial_001.wav,06,00,Dutch,A2,True,False,True,False,False,True,True,True,True,True,True,True,No,No,No,No,No,No,2020_Jul_10_1317,nibs_stage_1,3.2.3,59.9372947575102,
0,0,0,0,0,0,0,0,2,0,2,0,,,,,,,,,,,,,,,,,,,,,,,,,Listen to the question and speak out your answer!,590.4279270172119,None,590.4100026607514,592.410719871521,Ich kann das Buch nirgends finden.,finden,591.8107796669007,None,594.0779047966004,595.0777750015259,607.0117267131806,None,608.4118130207062,609.4117670059204,./data/Subject_06/Session_00/Exp_data/2020_Jul_10_1317/rec_QA_run_00_block_000_trial_002.wav,06,00,Dutch,A2,True,False,True,False,False,True,True,True,True,True,True,True,No,No,No,No,No,No,2020_Jul_10_1317,nibs_stage_1,3.2.3,59.9372947575102,
0,0,0,0,0,0,0,0,3,0,3,0,,,,,,,,,,,,,,,,,,,,,,,,,Listen to the question and speak out your answer!,611.4627819061279,None,611.4610436439515,613.4620978832245,Alkoholsucht schadet der Gesundheit.,schadet,612.8455036640167,615.3454859256744,615.7621646881104,616.7622308731079,628.0461576938629,629.0461339950562,629.4462449550629,630.4463059902191,./data/Subject_06/Session_00/Exp_data/2020_Jul_10_1317/rec_QA_run_00_block_000_trial_003.wav,06,00,Dutch,A2,True,False,True,False,False,True,True,True,True,True,True,True,No,No,No,No,No,No,2020_Jul_10_1317,nibs_stage_1,3.2.3,59.9372947575102,
0,0,0,0,0,0,0,0,4,0,4,0,,,,,,,,,,,,,,,,,,,,,,,,,Listen to the question and speak out your answer!,632.4968328475952,None,632.4955826282502,634.4965000152588,Ich habe seine Telefonnummer auf einem Zettel notiert.,notiert,633.8797856330872,None,637.496589756012,None,649.0806227684021,None,650.4806678295135,651.4807209968567,./data/Subject_06/Session_00/Exp_data/2020_Jul_10_1317/rec_QA_run_00_block_000_trial_004.wav,06,00,Dutch,A2,True,False,True,False,False,True,True,True,True,True,True,True,No,No,No,No,No,No,2020_Jul_10_1317,nibs_stage_1,3.2.3,59.9372947575102,
0,0,0,0,0,0,0,0,5,0,5,0,,,,,,,,,,,,,,,,,,,,,,,,,Listen to the question and speak out your answer!,653.5480718612671,None,653.5299976348878,655.5309319496155,An der Kasse bezahlen wir mit Bankomatkarte.,bezahlen,654.9142638206482,None,658.3644157409668,None,670.1150346755982,671.1151158809662,671.5151250362396,672.515184879303,./data/Subject_06/Session_00/Exp_data/2020_Jul_10_1317/rec_QA_run_00_block_000_trial_005.wav,06,00,Dutch,A2,True,False,True,False,False,True,True,True,True,True,True,True,No,No,No,No,No,No,2020_Jul_10_1317,nibs_stage_1,3.2.3,59.9372947575102,
0,0,0,0,0,0,0,0,6,0,6,0,,,,,,,,,,,,,,,,,,,,,,,,,Listen to the question and speak out your answer!,674.5987248420715,None,674.5811295986176,676.5822668075562,Wir haben im Wald Beeren und Pilze gesammelt.,gesammelt,675.9653426170349,None,679.148752784729,None,691.1661916732788,None,692.5662658214569,693.5662758350372,./data/Subject_06/Session_00/Exp_data/2020_Jul_10_1317/rec_QA_run_00_block_000_trial_006.wav,06,00,Dutch,A2,True,False,True,False,False,True,True,True,True,True,True,True,No,No,No,No,No,No,2020_Jul_10_1317,nibs_stage_1,3.2.3,59.9372947575102,
0,0,0,0,0,0,0,0,7,0,7,0,,,,,,,,,,,,,,,,,,,,,,,,,Listen to the question and speak out your answer!,695.6499240398407,None,695.6322756290436,697.6332108974457,Der Sturm entlaubte alle Bäume in unserem Garten.,entlaubte,697.0165277481079,700.2000398635864,700.6000846385956,None,712.2171307563782,None,713.6171278953552,714.6172738075256,./data/Subject_06/Session_00/Exp_data/2020_Jul_10_1317/rec_QA_run_00_block_000_trial_007.wav,06,00,Dutch,A2,True,False,True,False,False,True,True,True,True,True,True,True,No,No,No,No,No,No,2020_Jul_10_1317,nibs_stage_1,3.2.3,59.9372947575102,
0,0,0,0,0,0,0,0,8,0,8,0,,,,,,,,,,,,,,,,,,,,,,,,,Listen to the question and speak out your answer!,716.683974981308,None,716.6665504455567,718.6674840450287,"Ich möchte einen weiteren Test durchführen, um die Ergebnisse zu prüfen.",prüfen,718.0508635997772,None,722.8009856700897,None,733.2516516208649,None,734.6517100334167,735.6517028808594,./data/Subject_06/Session_00/Exp_data/2020_Jul_10_1317/rec_QA_run_00_block_000_trial_008.wav,06,00,Dutch,A2,True,False,True,False,False,True,True,True,True,True,True,True,No,No,No,No,No,No,2020_Jul_10_1317,nibs_stage_1,3.2.3,59.9372947575102,
0,0,0,0,0,0,0,0,9,0,9,0,,,,,,,,,,,,,,,,,,,,,,,,,Listen to the question and speak out your answer!,737.7187788486481,None,737.7010738372803,739.7020030021667,Taktlose Fragen machen mich wütend.,machen,739.085369682312,None,742.0354348182678,None,754.2861276626587,None,755.6862189769745,756.6862859725952,./data/Subject_06/Session_00/Exp_data/2020_Jul_10_1317/rec_QA_run_00_block_000_trial_009.wav,06,00,Dutch,A2,True,False,True,False,False,True,True,True,True,True,True,True,No,No,No,No,No,No,2020_Jul_10_1317,nibs_stage_1,3.2.3,59.9372947575102,
0,0,0,0,0,0,0,0,10,0,10,0,,,,,,,,,,,,,,,,,,,,,,,,,Listen to the question and speak out your answer!,758.7700779438019,None,758.7522275924683,760.7531869411469,Man wird damit bargeldlos bezahlen können.,bezahlen,760.1364587306977,762.7365889549255,763.1532758235932,None,775.3373785972595,None,776.7374639511108,777.73743891716,./data/Subject_06/Session_00/Exp_data/2020_Jul_10_1317/rec_QA_run_00_block_000_trial_010.wav,06,00,Dutch,A2,True,False,True,False,False,True,True,True,True,True,True,True,No,No,No,No,No,No,2020_Jul_10_1317,nibs_stage_1,3.2.3,59.9372947575102,
0,0,0,0,0,0,0,0,11,0,11,0,,,,,,,,,,,,,,,,,,,,,,,,,Listen to the question and speak out your answer!,779.8375458717346,None,779.8366979122162,781.8376228809357,Der Artikel hat bereits genügend nützliche Hintergrundinformationen geliefert.,geliefert,781.2209666728974,785.9381408691406,786.3548377513886,None,796.4221907615662,None,797.8221089839935,798.8221750259399,./data/Subject_06/Session_00/Exp_data/2020_Jul_10_1317/rec_QA_run_00_block_000_trial_011.wav,06,00,Dutch,A2,True,False,True,False,False,True,True,True,True,True,True,True,No,No,No,No,No,No,2020_Jul_10_1317,nibs_stage_1,3.2.3,59.9372947575102,
0,0,0,0,0,0,0,0,12,0,12,0,,,,,,,,,,,,,,,,,,,,,,,,,Listen to the question and speak out your answer!,800.8890719413757,None,800.871451663971,802.8723599910736,Josi hat letzte Nacht nur wenig Schlaf gefunden.,gefunden,802.2389417648316,805.2391359806061,805.6558187961579,None,817.4399097919464,None,818.8398590087891,819.839968919754,./data/Subject_06/Session_00/Exp_data/2020_Jul_10_1317/rec_QA_run_00_block_000_trial_012.wav,06,00,Dutch,A2,True,False,True,False,False,True,True,True,True,True,True,True,No,No,No,No,No,No,2020_Jul_10_1317,nibs_stage_1,3.2.3,59.9372947575102,
0,0,0,0,0,0,0,0,13,0,13,0,,,,,,,,,,,,,,,,,,,,,,,,,Listen to the question and speak out your answer!,821.9067358970642,None,821.8892688274384,823.8902399539948,Sie hat schon eine ganze Reihe Bilder gemalt.,gemalt,823.2734867095947,825.9569790363312,826.3738428115845,None,838.4743607997895,839.4745168685913,839.8745589256287,840.8744678497314,./data/Subject_06/Session_00/Exp_data/2020_Jul_10_1317/rec_QA_run_00_block_000_trial_013.wav,06,00,Dutch,A2,True,False,True,False,False,True,True,True,True,True,True,True,No,No,No,No,No,No,2020_Jul_10_1317,nibs_stage_1,3.2.3,59.9372947575102,
0,0,0,0,0,0,0,0,14,0,14,0,,,,,,,,,,,,,,,,,,,,,,,,,Listen to the question and speak out your answer!,842.9580399990082,None,842.9404294967652,844.9413568973541,Ich konnte meine Brille nicht finden.,finden,844.3246468067169,None,846.7413686275482,847.7415208816528,859.5088747501374,None,860.9090988636017,861.9088928699493,./data/Subject_06/Session_00/Exp_data/2020_Jul_10_1317/rec_QA_run_00_block_000_trial_014.wav,06,00,Dutch,A2,True,False,True,False,False,True,True,True,True,True,True,True,No,No,No,No,No,No,2020_Jul_10_1317,nibs_stage_1,3.2.3,59.9372947575102,
0,0,0,0,0,0,0,0,15,0,15,0,,,,,,,,,,,,,,,,,,,,,,,,,Listen to the question and speak out your answer!,863.9925458431244,None,863.9749365329743,866.0090198516846,"Die Deutschen sind immer organisiert und werden alles planen, bevor sie irgendetwas tun.",planen,865.3425637245178,870.3927569389343,870.8094507217407,None,880.543544626236,881.543370962143,881.9433898925781,882.9434208869934,./data/Subject_06/Session_00/Exp_data/2020_Jul_10_1317/rec_QA_run_00_block_000_trial_015.wav,06,00,Dutch,A2,True,False,True,False,False,True,True,True,True,True,True,True,No,No,No,No,No,No,2020_Jul_10_1317,nibs_stage_1,3.2.3,59.9372947575102,
0,0,0,0,0,0,0,0,16,0,16,0,,,,,,,,,,,,,,,,,,,,,,,,,Listen to the question and speak out your answer!,885.0106239318848,None,884.9927386760712,886.9936549663544,"Der Arzt hat gesagt, ich sähe völlig gesund aus.",gesagt,886.393607711792,None,889.8604746818543,None,901.5944906234741,902.5947198867798,902.9944558143616,903.9946019649506,./data/Subject_06/Session_00/Exp_data/2020_Jul_10_1317/rec_QA_run_00_block_000_trial_016.wav,06,00,Dutch,A2,True,False,True,False,False,True,True,True,True,True,True,True,No,No,No,No,No,No,2020_Jul_10_1317,nibs_stage_1,3.2.3,59.9372947575102,
0,0,0,0,0,0,0,0,17,0,17,0,,,,,,,,,,,,,,,,,,,,,,,,,Listen to the question and speak out your answer!,906.0614669322968,None,906.0438786029816,908.04483294487,"Melanie sieht so schlecht, sie braucht eine Brille.",braucht,907.4278286457062,910.3448808193207,910.7616706848145,None,922.6291686058045,None,924.0291810035706,925.0292439460754,./data/Subject_06/Session_00/Exp_data/2020_Jul_10_1317/rec_QA_run_00_block_000_trial_017.wav,06,00,Dutch,A2,True,False,True,False,False,True,True,True,True,True,True,True,No,No,No,No,No,No,2020_Jul_10_1317,nibs_stage_1,3.2.3,59.9372947575102,
0,0,0,0,0,0,0,0,18,0,18,0,,,,,,,,,,,,,,,,,,,,,,,,,Listen to the question and speak out your answer!,927.0960500240326,None,927.0783128261567,929.0793209075928,Der Vogel flog zurück zu seinem Nest.,flog,928.4625926971436,None,931.3129516601563,932.3128650188446,943.6635027885437,None,945.0635628700256,946.063551902771,./data/Subject_06/Session_00/Exp_data/2020_Jul_10_1317/rec_QA_run_00_block_000_trial_018.wav,06,00,Dutch,A2,True,False,True,False,False,True,True,True,True,True,True,True,No,No,No,No,No,No,2020_Jul_10_1317,nibs_stage_1,3.2.3,59.9372947575102,
0,0,0,0,0,0,0,0,19,0,19,0,,,,,,,,,,,,,,,,,,,,,,,,,Listen to the question and speak out your answer!,948.1303498744965,None,948.112892818451,950.1135878562927,Der frühe Vogel kann den Wurm fangen.,fangen,949.4968696594239,951.8137729167938,952.2139128208161,953.2304399013519,964.6979146957398,None,966.0979478359222,967.0980880260468,./data/Subject_06/Session_00/Exp_data/2020_Jul_10_1317/rec_QA_run_00_block_000_trial_019.wav,06,00,Dutch,A2,True,False,True,False,False,True,True,True,True,True,True,True,No,No,No,No,No,No,2020_Jul_10_1317,nibs_stage_1,3.2.3,59.9372947575102,
0,0,0,0,0,0,0,0,20,0,20,0,,,,,,,,,,,,,,,,,,,,,,,,,Listen to the question and speak out your answer!,969.1645698547363,None,969.1474546909333,971.1482799053192,Die Erklärungen des Lehrers haben absolut Sinn ergeben.,ergeben,970.5482386112213,973.964998960495,974.3651026248932,None,985.7488606929779,None,987.1656019687653,None,./data/Subject_06/Session_00/Exp_data/2020_Jul_10_1317/rec_QA_run_00_block_000_trial_020.wav,06,00,Dutch,A2,True,False,True,False,False,True,True,True,True,True,True,True,No,No,No,No,No,No,2020_Jul_10_1317,nibs_stage_1,3.2.3,59.9372947575102,
0,0,0,0,0,0,0,0,21,0,21,0,,,,,,,,,,,,,,,,,,,,,,,,,Listen to the question and speak out your answer!,990.2326459884644,None,990.2149584770203,992.2325859069824,"Der Assistent ging zurück ins Büro, um die Dokumente zu holen.",holen,991.6158398151398,None,995.9827548027039,996.9995520114899,1006.8167887687683,None,1008.2334499359131,None,./data/Subject_06/Session_00/Exp_data/2020_Jul_10_1317/rec_QA_run_00_block_000_trial_021.wav,06,00,Dutch,A2,True,False,True,False,False,True,True,True,True,True,True,True,No,No,No,No,No,No,2020_Jul_10_1317,nibs_stage_1,3.2.3,59.9372947575102,
0,0,0,0,0,0,0,0,22,0,22,0,,,,,,,,,,,,,,,,,,,,,,,,,Listen to the question and speak out your answer!,1011.266921043396,None,1011.249416923523,1013.2671158313751,"Wir entschieden uns dafür, mit dem Flugzeug nach Stockholm zu fliegen.",fliegen,1012.650315618515,None,1017.2840686798096,None,1027.8512536048888,None,1029.2680048942566,None,./data/Subject_06/Session_00/Exp_data/2020_Jul_10_1317/rec_QA_run_00_block_000_trial_022.wav,06,00,Dutch,A2,True,False,True,False,False,True,True,True,True,True,True,True,No,No,No,No,No,No,2020_Jul_10_1317,nibs_stage_1,3.2.3,59.9372947575102,
0,0,0,0,0,0,0,0,23,0,23,0,,,,,,,,,,,,,,,,,,,,,,,,,Listen to the question and speak out your answer!,1032.334764957428,None,1032.3173196792602,1034.3349769115448,"Sam ist nicht da, soll ich ihm sagen, dass Sie nachher zurück rufen?",rufen,1033.7182267665862,1037.7683629989624,1038.1184488296508,None,1048.9190987110137,None,1050.3358130455017,None,./data/Subject_06/Session_00/Exp_data/2020_Jul_10_1317/rec_QA_run_00_block_000_trial_023.wav,06,00,Dutch,A2,True,False,True,False,False,True,True,True,True,True,True,True,No,No,No,No,No,No,2020_Jul_10_1317,nibs_stage_1,3.2.3,59.9372947575102,
0,0,0,0,0,0,0,0,24,0,24,0,,,,,,,,,,,,,,,,,,,,,,,,,Listen to the question and speak out your answer!,1053.4037988185883,None,1053.3851395130157,1055.4027409553528,"Wenn Sie mit diesem Produkt nicht zufrieden sind, können wir eine Alternative anbieten.",anbieten,1054.7860318183898,1059.702978849411,1060.0863126277923,None,1069.986777639389,None,1071.4037249088287,None,./data/Subject_06/Session_00/Exp_data/2020_Jul_10_1317/rec_QA_run_00_block_000_trial_024.wav,06,00,Dutch,A2,True,False,True,False,False,True,True,True,True,True,True,True,No,No,No,No,No,No,2020_Jul_10_1317,nibs_stage_1,3.2.3,59.9372947575102,
0,0,0,0,0,0,0,0,,,,,,,,,,,,,,,,,,1075.4537658691406,None,,,,,,,,,,,,,,,,,,,,,,,,,,06,00,Dutch,A2,True,False,True,False,False,True,True,True,True,True,True,True,No,No,No,No,No,No,2020_Jul_10_1317,nibs_stage_1,3.2.3,59.9372947575102,
0,0,0,0,1,0,1,0,0,0,0,0,,,,,,,,,,,,,,,,,,,,,,,,,Listen to the question and speak out your answer!,1092.5053269863129,None,1092.4702338695524,1094.5047738552094,Wir sind mit dem Jeep auf Safari in Kenia gefahren.,gefahren,1093.8880947589873,None,1097.654945707321,None,1109.0889426231383,None,1110.5056509971619,None,./data/Subject_06/Session_00/Exp_data/2020_Jul_10_1317/rec_QA_run_00_block_001_trial_000.wav,06,00,Dutch,A2,True,False,True,False,False,True,True,True,True,True,True,True,No,No,No,No,No,No,2020_Jul_10_1317,nibs_stage_1,3.2.3,59.9372947575102,
0,0,0,0,1,0,1,0,1,0,1,0,,,,,,,,,,,,,,,,,,,,,,,,,Listen to the question and speak out your answer!,1113.5392408370972,None,1113.5050007820128,1115.5392558574677,"Sie hat den Newsletter abonniert, um weitere Informationen zu erhalten.",abonniert,1114.9225517272948,None,1119.6228116512298,1120.6395390033722,1130.123392677307,1131.140112876892,1131.540256023407,None,./data/Subject_06/Session_00/Exp_data/2020_Jul_10_1317/rec_QA_run_00_block_001_trial_001.wav,06,00,Dutch,A2,True,False,True,False,False,True,True,True,True,True,True,True,No,No,No,No,No,No,2020_Jul_10_1317,nibs_stage_1,3.2.3,59.9372947575102,
0,0,0,0,1,0,1,0,2,0,2,0,,,,,,,,,,,,,,,,,,,,,,,,,Listen to the question and speak out your answer!,1134.5737190246582,None,1134.5394947052,1136.5737369060516,Toni fliegt mit dem Flugzeug nach.,fliegt,1135.9570787906646,1138.3071649074554,1138.6572097301482,1139.6739029884338,1151.157766675949,None,1152.5746278762817,None,./data/Subject_06/Session_00/Exp_data/2020_Jul_10_1317/rec_QA_run_00_block_001_trial_002.wav,06,00,Dutch,A2,True,False,True,False,False,True,True,True,True,True,True,True,No,No,No,No,No,No,2020_Jul_10_1317,nibs_stage_1,3.2.3,59.9372947575102,
0,0,0,0,1,0,1,0,3,0,3,0,,,,,,,,,,,,,,,,,,,,,,,,,Listen to the question and speak out your answer!,1155.62544298172,None,1155.590631532669,1157.6249148845673,Das Fleisch wurde über dem offenen Feuer gegrillt.,gegrillt,1157.008156633377,None,1160.3751448154449,None,1172.209052658081,None,1173.6257629394531,None,./data/Subject_06/Session_00/Exp_data/2020_Jul_10_1317/rec_QA_run_00_block_001_trial_003.wav,06,00,Dutch,A2,True,False,True,False,False,True,True,True,True,True,True,True,No,No,No,No,No,No,2020_Jul_10_1317,nibs_stage_1,3.2.3,59.9372947575102,
0,0,0,0,1,0,1,0,4,0,4,0,,,,,,,,,,,,,,,,,,,,,,,,,Listen to the question and speak out your answer!,1176.659910917282,None,1176.625103664398,1178.6593849658966,Wir müssen uns beeilen oder wir verpassen unseren Zug.,beeilen,1178.0093096256255,1181.3594908714294,1181.7761956214904,None,1193.226787662506,None,1194.643548965454,None,./data/Subject_06/Session_00/Exp_data/2020_Jul_10_1317/rec_QA_run_00_block_001_trial_004.wav,06,00,Dutch,A2,True,False,True,False,False,True,True,True,True,True,True,True,No,No,No,No,No,No,2020_Jul_10_1317,nibs_stage_1,3.2.3,59.9372947575102,
0,0,0,0,1,0,1,0,5,0,5,0,,,,,,,,,,,,,,,,,,,,,,,,,Listen to the question and speak out your answer!,1197.710480928421,None,1197.6928894996643,1199.7105088233948,"Wenn sie sich etwas leiht, bringt sie es immer zurück.",leiht,1199.0937996864318,1201.8772749900818,1202.2607916355132,None,1214.29460773468,None,1215.7113590240479,None,./data/Subject_06/Session_00/Exp_data/2020_Jul_10_1317/rec_QA_run_00_block_001_trial_005.wav,06,00,Dutch,A2,True,False,True,False,False,True,True,True,True,True,True,True,No,No,No,No,No,No,2020_Jul_10_1317,nibs_stage_1,3.2.3,59.9372947575102,
0,0,0,0,1,0,1,0,6,0,6,0,,,,,,,,,,,,,,,,,,,,,,,,,Listen to the question and speak out your answer!,1218.762111902237,None,1218.7273586273193,1220.7616510391235,"Wir sind stolz auf das, was wir bis jetzt geschafft haben.",geschafft,1220.111679649353,1223.4617989063263,1223.8784748077392,None,1235.3124187946319,None,1236.7291820049286,None,./data/Subject_06/Session_00/Exp_data/2020_Jul_10_1317/rec_QA_run_00_block_001_trial_006.wav,06,00,Dutch,A2,True,False,True,False,False,True,True,True,True,True,True,True,No,No,No,No,No,No,2020_Jul_10_1317,nibs_stage_1,3.2.3,59.9372947575102,
0,0,0,0,1,0,1,0,7,0,7,0,,,,,,,,,,,,,,,,,,,,,,,,,Listen to the question and speak out your answer!,1239.7798750400543,None,1239.7618407726286,1241.7794408798218,Das Volleyballspiel wird in einer Sporthalle ausgetragen.,ausgetragen,1241.1627357959746,None,1244.9629386425017,None,1256.3635548114776,None,1257.7804379463196,None,./data/Subject_06/Session_00/Exp_data/2020_Jul_10_1317/rec_QA_run_00_block_001_trial_007.wav,06,00,Dutch,A2,True,False,True,False,False,True,True,True,True,True,True,True,No,No,No,No,No,No,2020_Jul_10_1317,nibs_stage_1,3.2.3,59.9372947575102,
0,0,0,0,1,0,1,0,8,0,8,0,,,,,,,,,,,,,,,,,,,,,,,,,Listen to the question and speak out your answer!,1260.8471720218658,None,1260.812984895706,1262.8472528457642,"Ich habe mir ein neues Ziel gesetzt, das ich erreichen möchte.",erreichen,1262.2305336952209,1265.9474258422852,1266.330732679367,1267.3475289344788,1277.4313736915587,None,1278.8481659889221,None,./data/Subject_06/Session_00/Exp_data/2020_Jul_10_1317/rec_QA_run_00_block_001_trial_008.wav,06,00,Dutch,A2,True,False,True,False,False,True,True,True,True,True,True,True,No,No,No,No,No,No,2020_Jul_10_1317,nibs_stage_1,3.2.3,59.9372947575102,
0,0,0,0,1,0,1,0,9,0,9,0,,,,,,,,,,,,,,,,,,,,,,,,,Listen to the question and speak out your answer!,1281.8818128108978,None,1281.8473627090452,1283.88170003891,"Er benutzt Twitter, um mit anderen zu chatten.",benutzt,1283.2650056838988,None,1286.4318586349486,None,1298.465820646286,None,1299.8826208114624,None,./data/Subject_06/Session_00/Exp_data/2020_Jul_10_1317/rec_QA_run_00_block_001_trial_009.wav,06,00,Dutch,A2,True,False,True,False,False,True,True,True,True,True,True,True,No,No,No,No,No,No,2020_Jul_10_1317,nibs_stage_1,3.2.3,59.9372947575102,
0,0,0,0,1,0,1,0,10,0,10,0,,,,,,,,,,,,,,,,,,,,,,,,,Listen to the question and speak out your answer!,1302.917762041092,None,1302.89858751297,1304.9160978794098,Die Flasche steht auf dem Tisch.,steht,1304.2995196342467,None,1306.632927751541,None,1319.5003777503966,None,1320.917042016983,None,./data/Subject_06/Session_00/Exp_data/2020_Jul_10_1317/rec_QA_run_00_block_001_trial_010.wav,06,00,Dutch,A2,True,False,True,False,False,True,True,True,True,True,True,True,No,No,No,No,No,No,2020_Jul_10_1317,nibs_stage_1,3.2.3,59.9372947575102,
0,0,0,0,1,0,1,0,11,0,11,0,,,,,,,,,,,,,,,,,,,,,,,,,Listen to the question and speak out your answer!,1323.9839010238647,None,1323.949709844589,1325.9840078353882,"Tut mir leid, darf ich fragen warum?",fragen,1325.3672066688537,1327.8840868473053,1328.2675236225127,None,1340.568103647232,None,1341.984874010086,None,./data/Subject_06/Session_00/Exp_data/2020_Jul_10_1317/rec_QA_run_00_block_001_trial_011.wav,06,00,Dutch,A2,True,False,True,False,False,True,True,True,True,True,True,True,No,No,No,No,No,No,2020_Jul_10_1317,nibs_stage_1,3.2.3,59.9372947575102,
0,0,0,0,1,0,1,0,12,0,12,0,,,,,,,,,,,,,,,,,,,,,,,,,Listen to the question and speak out your answer!,1345.0351648330688,None,1345.0008535861969,1347.0351269245148,Das Abendessen wird pünktlich um 12 Uhr auf den Tisch stehen.,stehen,1346.4184056282043,1350.135291814804,1350.5186437129973,1351.5353729724884,1361.6192437171935,None,1363.0359950065613,None,./data/Subject_06/Session_00/Exp_data/2020_Jul_10_1317/rec_QA_run_00_block_001_trial_012.wav,06,00,Dutch,A2,True,False,True,False,False,True,True,True,True,True,True,True,No,No,No,No,No,No,2020_Jul_10_1317,nibs_stage_1,3.2.3,59.9372947575102,
0,0,0,0,1,0,1,0,13,0,13,0,,,,,,,,,,,,,,,,,,,,,,,,,Listen to the question and speak out your answer!,1366.0534629821777,None,1366.018660879135,1368.053020954132,"Es freut mich sehr, Sie kennenzulernen.",freut,1367.4028807640075,None,1370.2697077751159,None,1382.6036997795104,None,1384.0204119682312,None,./data/Subject_06/Session_00/Exp_data/2020_Jul_10_1317/rec_QA_run_00_block_001_trial_013.wav,06,00,Dutch,A2,True,False,True,False,False,True,True,True,True,True,True,True,No,No,No,No,No,No,2020_Jul_10_1317,nibs_stage_1,3.2.3,59.9372947575102,
0,0,0,0,1,0,1,0,14,0,14,0,,,,,,,,,,,,,,,,,,,,,,,,,Listen to the question and speak out your answer!,1387.0874378681183,None,1387.0697975635528,1389.0873968601227,Abgase werden das Klima schädigen.,schädigen,1388.4707666397094,None,1391.2708557605742,None,1403.6381956100463,None,1405.0549709796906,None,./data/Subject_06/Session_00/Exp_data/2020_Jul_10_1317/rec_QA_run_00_block_001_trial_014.wav,06,00,Dutch,A2,True,False,True,False,False,True,True,True,True,True,True,True,No,No,No,No,No,No,2020_Jul_10_1317,nibs_stage_1,3.2.3,59.9372947575102,
0,0,0,0,1,0,1,0,15,0,15,0,,,,,,,,,,,,,,,,,,,,,,,,,Listen to the question and speak out your answer!,1408.1218519210815,None,1408.087618780136,1410.1218729019165,Einige Eltern haben ihren Töchtern rosa Kleider gekauft.,gekauft,1409.4719017505645,None,1413.4053736686706,None,1424.6726387500762,None,1426.0893099308014,None,./data/Subject_06/Session_00/Exp_data/2020_Jul_10_1317/rec_QA_run_00_block_001_trial_015.wav,06,00,Dutch,A2,True,False,True,False,False,True,True,True,True,True,True,True,No,No,No,No,No,No,2020_Jul_10_1317,nibs_stage_1,3.2.3,59.9372947575102,
0,0,0,0,1,0,1,0,16,0,16,0,,,,,,,,,,,,,,,,,,,,,,,,,Listen to the question and speak out your answer!,1429.1577758789062,None,1429.1387324810028,1431.156329870224,Ihre Freundlichkeit gab mir ein Gefühl von Sicherheit.,gab,1430.5396276473998,None,1434.1398166179656,None,1445.7404647827148,None,1447.1571989059448,None,./data/Subject_06/Session_00/Exp_data/2020_Jul_10_1317/rec_QA_run_00_block_001_trial_016.wav,06,00,Dutch,A2,True,False,True,False,False,True,True,True,True,True,True,True,No,No,No,No,No,No,2020_Jul_10_1317,nibs_stage_1,3.2.3,59.9372947575102,
0,0,0,0,1,0,1,0,17,0,17,0,,,,,,,,,,,,,,,,,,,,,,,,,Listen to the question and speak out your answer!,1450.1913859844208,None,1450.156529855728,1452.1907830238342,Er hat den Vorgang im Tagebuch beschrieben.,beschrieben,1451.5740707874297,1454.0242099761963,1454.4075656890868,None,1466.7415808200835,1467.7583129405975,1468.1583619117737,None,./data/Subject_06/Session_00/Exp_data/2020_Jul_10_1317/rec_QA_run_00_block_001_trial_017.wav,06,00,Dutch,A2,True,False,True,False,False,True,True,True,True,True,True,True,No,No,No,No,No,No,2020_Jul_10_1317,nibs_stage_1,3.2.3,59.9372947575102,
0,0,0,0,1,0,1,0,18,0,18,0,,,,,,,,,,,,,,,,,,,,,,,,,Listen to the question and speak out your answer!,1471.2270829677582,None,1471.2077315330505,1473.2252688407898,"Bevor es Autos gab, sind die Leute mit der Eisenbahn gefahren.",gefahren,1472.608683681488,None,1476.8421207427978,1477.858960866928,1487.8093636989593,None,1489.2261350154877,None,./data/Subject_06/Session_00/Exp_data/2020_Jul_10_1317/rec_QA_run_00_block_001_trial_018.wav,06,00,Dutch,A2,True,False,True,False,False,True,True,True,True,True,True,True,No,No,No,No,No,No,2020_Jul_10_1317,nibs_stage_1,3.2.3,59.9372947575102,
0,0,0,0,1,0,1,0,19,0,19,0,,,,,,,,,,,,,,,,,,,,,,,,,Listen to the question and speak out your answer!,1492.2936029434204,None,1492.2589277744291,1494.2933650016785,Ich habe einen Platz für die Oper reserviert.,reserviert,1493.6763566493987,1496.4601328372955,1496.8098627090453,None,1508.860623693466,None,1510.2772760391235,None,./data/Subject_06/Session_00/Exp_data/2020_Jul_10_1317/rec_QA_run_00_block_001_trial_019.wav,06,00,Dutch,A2,True,False,True,False,False,True,True,True,True,True,True,True,No,No,No,No,No,No,2020_Jul_10_1317,nibs_stage_1,3.2.3,59.9372947575102,
0,0,0,0,1,0,1,0,20,0,20,0,,,,,,,,,,,,,,,,,,,,,,,,,Listen to the question and speak out your answer!,1513.329116821289,None,1513.3099548339842,1515.327642917633,"Ich nehme lieber den Bus, da gibt es nicht so viele Haltestellen.",gibt,1514.7108207702636,1518.69442486763,1519.0777007102965,1520.0946719646454,1529.911678647995,None,1531.328383922577,None,./data/Subject_06/Session_00/Exp_data/2020_Jul_10_1317/rec_QA_run_00_block_001_trial_020.wav,06,00,Dutch,A2,True,False,True,False,False,True,True,True,True,True,True,True,No,No,No,No,No,No,2020_Jul_10_1317,nibs_stage_1,3.2.3,59.9372947575102,
0,0,0,0,1,0,1,0,21,0,21,0,,,,,,,,,,,,,,,,,,,,,,,,,Listen to the question and speak out your answer!,1534.4124870300293,None,1534.3777494907379,1536.412003993988,Ich muss den Anzug vor der Geschäftsreise in den Koffer einpacken.,einpacken,1535.761963701248,None,1539.8955117225646,None,1550.9629047870635,1551.9795038700104,1552.3795199394226,None,./data/Subject_06/Session_00/Exp_data/2020_Jul_10_1317/rec_QA_run_00_block_001_trial_021.wav,06,00,Dutch,A2,True,False,True,False,False,True,True,True,True,True,True,True,No,No,No,No,No,No,2020_Jul_10_1317,nibs_stage_1,3.2.3,59.9372947575102,
0,0,0,0,1,0,1,0,22,0,22,0,,,,,,,,,,,,,,,,,,,,,,,,,Listen to the question and speak out your answer!,1555.463129043579,None,1555.4288666725158,1557.463129043579,Er hilft der alten Frau beim Einsteigen ins Auto.,hilft,1556.8130846977233,None,1560.4132886886596,None,1572.0139087200164,None,1573.4306638240814,None,./data/Subject_06/Session_00/Exp_data/2020_Jul_10_1317/rec_QA_run_00_block_001_trial_022.wav,06,00,Dutch,A2,True,False,True,False,False,True,True,True,True,True,True,True,No,No,No,No,No,No,2020_Jul_10_1317,nibs_stage_1,3.2.3,59.9372947575102,
0,0,0,0,1,0,1,0,23,0,23,0,,,,,,,,,,,,,,,,,,,,,,,,,Listen to the question and speak out your answer!,1576.4814779758453,None,1576.4633917331694,1578.4809219837189,Im Nil schwimmen heilige Krokodile.,schwimmen,1577.8642247676848,1580.3476769924164,1580.731046772003,None,1593.0650638103484,None,1594.4818069934845,None,./data/Subject_06/Session_00/Exp_data/2020_Jul_10_1317/rec_QA_run_00_block_001_trial_023.wav,06,00,Dutch,A2,True,False,True,False,False,True,True,True,True,True,True,True,No,No,No,No,No,No,2020_Jul_10_1317,nibs_stage_1,3.2.3,59.9372947575102,
0,0,0,0,1,0,1,0,24,0,24,0,,,,,,,,,,,,,,,,,,,,,,,,,Listen to the question and speak out your answer!,1597.5496678352356,None,1597.53122549057,1599.548732995987,Ich will nicht mein ganzes Geld für ein neues Auto ausgeben.,ausgeben,1598.932014799118,1602.4492750167847,1602.8322356700896,None,1614.1328137874602,1615.1495559215546,1615.5495839118958,None,./data/Subject_06/Session_00/Exp_data/2020_Jul_10_1317/rec_QA_run_00_block_001_trial_024.wav,06,00,Dutch,A2,True,False,True,False,False,True,True,True,True,True,True,True,No,No,No,No,No,No,2020_Jul_10_1317,nibs_stage_1,3.2.3,59.9372947575102,
