artifact_trial.thisRepN,artifact_trial.thisTrialN,artifact_trial.thisN,artifact_trial.thisIndex,pre_trial.thisRepN,pre_trial.thisTrialN,pre_trial.thisN,pre_trial.thisIndex,run.thisRepN,run.thisTrialN,run.thisN,run.thisIndex,QA_block.thisRepN,QA_block.thisTrialN,QA_block.thisN,QA_block.thisIndex,QA_trial.thisRepN,QA_trial.thisTrialN,QA_trial.thisN,QA_trial.thisIndex,instruction_text.text,instruction_text.started,instruction_text.stopped,instruction_cont.started,instruction_cont.stopped,Artifact_intro_title.started,Artifact_intro_title.stopped,Artifact_intro_text.text,Artifact_intro_text.started,Artifact_intro_text.stopped,Artifact_intro_audio.started,Artifact_intro_audio.stopped,Artifact_intro_cont.started,Artifact_intro_cont.stopped,Artifact_rec_text.text,Artifact_rec_text.started,Artifact_rec_text.stopped,Artifact_rec_beep_hint.started,Artifact_rec_beep_hint.stopped,Artifact_rec_action.started,Artifact_rec_action.stopped,Artifact_rec_beep_start.started,Artifact_rec_beep_start.stopped,Artifact_rec_recording.started,Artifact_rec_recording.stopped,Artifact_rec_beep_end.started,Artifact_rec_beep_end.stopped,Artifact_rec_break.started,Artifact_rec_break.stopped,Cali_de_pre_intro_title.started,Cali_de_pre_intro_title.stopped,Cali_de_pre_intro_text.text,Cali_de_pre_intro_text.started,Cali_de_pre_intro_text.stopped,Cali_de_pre_intro_audio.started,Cali_de_pre_intro_audio.stopped,Cali_de_pre_intro_cont.started,Cali_de_pre_intro_cont.stopped,Cali_de_pre_rec_text.text,Cali_de_pre_rec_text.started,Cali_de_pre_rec_text.stopped,Cali_de_pre_rec_beep_hint.started,Cali_de_pre_rec_beep_hint.stopped,Cali_de_pre_rec_question_text.text,Cali_de_pre_rec_question_text.started,Cali_de_pre_rec_question_text.stopped,Cali_de_pre_rec_beep_start.started,Cali_de_pre_rec_beep_start.stopped,Cali_de_pre_rec_beep_end.started,Cali_de_pre_rec_beep_end.stopped,Cali_de_pre_rec_break.started,Cali_de_pre_rec_break.stopped,filename,Pause_cont.started,Pause_cont.stopped,fade_in_text.text,fade_in_text.started,fade_in_text.stopped,RS_intro_title.started,RS_intro_title.stopped,RS_intro_text.text,RS_intro_text.started,RS_intro_text.stopped,RS_intro_audio.started,RS_intro_audio.stopped,RS_rec_text.text,RS_rec_text.started,RS_rec_text.stopped,QA_intro_title.started,QA_intro_title.stopped,QA_intro_text.text,QA_intro_text.started,QA_intro_text.stopped,QA_intro_audio.started,QA_intro_audio.stopped,QA_intro_cont.started,QA_intro_cont.stopped,QA_rec_text.text,QA_rec_text.started,QA_rec_text.stopped,QA_rec_beep_hint.started,QA_rec_beep_hint.stopped,QA_rec_question.sen_text,QA_rec_question.cen_text,QA_rec_question.started,QA_rec_question.stopped,QA_rec_beep_start.started,QA_rec_beep_start.stopped,QA_rec_beep_end.started,QA_rec_beep_end.stopped,QA_rec_break.started,QA_rec_break.stopped,participant,session,First language,German level,Full_screen,Instruction,Intro,Artifact,Cali_pre,Fade_in_out,Artifact_within,Resting_State,QA,Pause,Cali_post,End,Breakpoint_Cali_pre_trial,Breakpoint_Run,Breakpoint_RS_block,Breakpoint_QA_block,Breakpoint_QA_trial,Breakpoint_Cali_post_trial,date,expName,psychopyVersion,frameRate,
0,0,0,0,,,,,,,,,,,,,,,,,"     Thank you for participating in the experiment: 

     Personalized non-invasive brain stimulation    
            for second language learning            
",14.885142803192139,None,29.869415998458862,None,30.902662992477417,None,"  - Task: Artifacts collection   
  - Please follow audio instruction              
",30.902662992477417,None,30.88429138660431,None,57.27132797241211,None,,59.30397176742554,None,59.301078748703006,61.30469083786011,60.68781921863556,None,64.0881671667099,65.08838176727295,65.48814914226531,75.48874092102051,75.88864014148712,None,77.28885078430176,78.28897094726562,,,,,,,,,,,,,,,,,,,,,,,,,,,,,,,,,,,,,,,,,,,,,,,,,,,,,,,,,,,,,,,,02,00,English,A2,True,True,True,True,True,True,True,True,True,True,True,True,No,No,No,No,No,No,2020_Jul_02_1020,nibs_stage_1,3.2.3,59.99121794514219,
1,0,1,0,,,,,,,,,,,,,,,,,,,,,,,,,,,,,,,,80.32189798355103,None,80.3020844221115,82.30576491355896,81.68899629116058,None,85.0891732931137,None,86.48924515247344,96.48970699310303,96.88978717327117,None,98.28988599777222,99.29012680053711,,,,,,,,,,,,,,,,,,,,,,,,,,,,,,,,,,,,,,,,,,,,,,,,,,,,,,,,,,,,,,,,02,00,English,A2,True,True,True,True,True,True,True,True,True,True,True,True,No,No,No,No,No,No,2020_Jul_02_1020,nibs_stage_1,3.2.3,59.99121794514219,
2,0,2,0,,,,,,,,,,,,,,,,,,,,,,,,,,,,,,,,101.32337880134583,None,101.31967828273773,103.32336378097534,102.70672509670257,None,106.10696122646331,None,107.50706026554107,117.50720477104187,117.9075441122055,None,119.3076548576355,120.3072919845581,,,,,,,,,,,,,,,,,,,,,,,,,,,,,,,,,,,,,,,,,,,,,,,,,,,,,,,,,,,,,,,,02,00,English,A2,True,True,True,True,True,True,True,True,True,True,True,True,No,No,No,No,No,No,2020_Jul_02_1020,nibs_stage_1,3.2.3,59.99121794514219,
3,0,3,0,,,,,,,,,,,,,,,,,,,,,,,,,,,,,,,,122.3412299156189,None,122.33741924762725,124.34117078781128,123.72454116344451,None,127.12468621730804,128.12483882904053,128.52490422725677,138.52551698684692,138.92528126239776,139.9253969192505,140.3253939151764,141.32547998428345,,,,,,,,,,,,,,,,,,,,,,,,,,,,,,,,,,,,,,,,,,,,,,,,,,,,,,,,,,,,,,,,02,00,English,A2,True,True,True,True,True,True,True,True,True,True,True,True,No,No,No,No,No,No,2020_Jul_02_1020,nibs_stage_1,3.2.3,59.99121794514219,
4,0,4,0,,,,,,,,,,,,,,,,,,,,,,,,,,,,,,,,143.37515687942505,None,143.35523126125335,145.35867500305176,144.74222419261932,None,148.1425432920456,149.1425428390503,149.54253027439117,159.54304885864258,159.943071103096,None,161.34314894676208,162.3432059288025,,,,,,,,,,,,,,,,,,,,,,,,,,,,,,,,,,,,,,,,,,,,,,,,,,,,,,,,,,,,,,,,02,00,English,A2,True,True,True,True,True,True,True,True,True,True,True,True,No,No,No,No,No,No,2020_Jul_02_1020,nibs_stage_1,3.2.3,59.99121794514219,
5,0,5,0,,,,,,,,,,,,,,,,,,,,,,,,,,,,,,,,164.39313793182373,None,164.37296936511993,166.37674283981323,165.7599062681198,None,169.16023228168487,None,170.56015322208404,180.56078696250916,180.9607782125473,None,182.36090087890625,183.3609528541565,,,,,,,,,,,,,,,,,,,,,,,,,,,,,,,,,,,,,,,,,,,,,,,,,,,,,,,,,,,,,,,,02,00,English,A2,True,True,True,True,True,True,True,True,True,True,True,True,No,No,No,No,No,No,2020_Jul_02_1020,nibs_stage_1,3.2.3,59.99121794514219,
6,0,6,0,,,,,,,,,,,,,,,,,,,,,,,,,,,,,,,,185.4105408191681,None,185.3907484769821,187.39420294761658,186.77712819576263,None,190.17810509204864,None,191.57799122333526,201.57851791381836,201.97848007678985,202.978670835495,203.3786277770996,204.37808084487915,,,,,,,,,,,,,,,,,,,,,,,,,,,,,,,,,,,,,,,,,,,,,,,,,,,,,,,,,,,,,,,,02,00,English,A2,True,True,True,True,True,True,True,True,True,True,True,True,No,No,No,No,No,No,2020_Jul_02_1020,nibs_stage_1,3.2.3,59.99121794514219,
7,0,7,0,,,,,,,,,,,,,,,,,,,,,,,,,,,,,,,,206.4288148880005,None,206.4078533411026,208.4121057987213,207.79552624225616,210.79567289352417,211.19561812877654,212.195170879364,212.5954560995102,222.59573698043823,222.99579713344573,None,224.39578080177307,225.39582681655884,,,,,,,,,,,,,,,,,,,,,,,,,,,,,,,,,,,,,,,,,,,,,,,,,,,,,,,,,,,,,,,,02,00,English,A2,True,True,True,True,True,True,True,True,True,True,True,True,No,No,No,No,No,No,2020_Jul_02_1020,nibs_stage_1,3.2.3,59.99121794514219,
8,0,8,0,,,,,,,,,,,,,,,,,,,,,,,,,,,,,,,,227.44603776931763,None,227.42562839984893,229.42937684059143,228.8125712633133,231.81273198127747,232.21272823810577,None,233.6128880739212,243.61357188224792,244.01342508792877,None,245.41359186172485,246.41358280181885,,,,,,,,,,,,,,,,,,,,,,,,,,,,,,,,,,,,,,,,,,,,,,,,,,,,,,,,,,,,,,,,02,00,English,A2,True,True,True,True,True,True,True,True,True,True,True,True,No,No,No,No,No,No,2020_Jul_02_1020,nibs_stage_1,3.2.3,59.99121794514219,
9,0,9,0,,,,,,,,,,,,,,,,,,,,,,,,,,,,,,,,248.4638888835907,None,248.44343826770782,250.4473958015442,249.83099529743194,252.83140397071838,253.2311560869217,None,254.63114426136016,264.63145089149475,265.03199527263644,None,266.4319589138031,267.4319829940796,,,,,,,,,,,,,,,,,,,,,,,,,,,,,,,,,,,,,,,,,,,,,,,,,,,,,,,,,,,,,,,,02,00,English,A2,True,True,True,True,True,True,True,True,True,True,True,True,No,No,No,No,No,No,2020_Jul_02_1020,nibs_stage_1,3.2.3,59.99121794514219,
10,0,10,0,,,,,,,,,,,,,,,,,,,,,,,,,,,,,,,,269.4816539287567,None,269.4620513677597,271.4654629230499,270.8489300966263,None,274.24904320240023,275.24903988838196,275.6490282773972,285.6496319770813,286.0496661424637,None,287.4496338367462,288.44932794570923,,,,,,,,,,,,,,,,,,,,,,,,,,,,,,,,,,,,,,,,,,,,,,,,,,,,,,,,,,,,,,,,02,00,English,A2,True,True,True,True,True,True,True,True,True,True,True,True,No,No,No,No,No,No,2020_Jul_02_1020,nibs_stage_1,3.2.3,59.99121794514219,
11,0,11,0,,,,,,,,,,,,,,,,,,,,,,,,,,,,,,,,290.5161409378052,None,290.49652836322787,292.4995219707489,291.88313910961153,None,295.2832562685013,None,296.6834132432938,306.6839098930359,307.0838961362839,None,308.4841649532318,309.48377299308777,,,,,,,,,,,,,,,,,,,,,,,,,,,,,,,,,,,,,,,,,,,,,,,,,,,,,,,,,,,,,,,,02,00,English,A2,True,True,True,True,True,True,True,True,True,True,True,True,No,No,No,No,No,No,2020_Jul_02_1020,nibs_stage_1,3.2.3,59.99121794514219,
12,0,12,0,,,,,,,,,,,,,,,,,,,,,,,,,,,,,,,,311.5340909957886,None,311.5134823083878,313.5177438259125,312.90072724819186,315.9008479118347,316.3011402845383,None,317.7011921167374,327.7017538547516,328.10170409679415,329.10144877433777,329.50184392929077,330.50178480148315,,,,,,,,,,,,,,,,,,,,,,,,,,,,,,,,,,,,,,,,,,,,,,,,,,,,,,,,,,,,,,,,02,00,English,A2,True,True,True,True,True,True,True,True,True,True,True,True,No,No,No,No,No,No,2020_Jul_02_1020,nibs_stage_1,3.2.3,59.99121794514219,
13,0,13,0,,,,,,,,,,,,,,,,,,,,,,,,,,,,,,,,332.5517067909241,None,332.53168127536776,334.53468894958496,333.9181451559067,None,337.319034075737,338.31831789016724,338.7182202100754,348.71946692466736,349.1194700956345,None,350.5358488559723,351.536328792572,,,,,,,,,,,,,,,,,,,,,,,,,,,,,,,,,,,,,,,,,,,,,,,,,,,,,,,,,,,,,,,,02,00,English,A2,True,True,True,True,True,True,True,True,True,True,True,True,No,No,No,No,No,No,2020_Jul_02_1020,nibs_stage_1,3.2.3,59.99121794514219,
14,0,14,0,,,,,,,,,,,,,,,,,,,,,,,,,,,,,,,,353.5693018436432,None,353.54944226741793,355.55316376686096,354.93666718006136,None,358.3362152338028,None,359.73627922534945,369.736909866333,370.13719913959505,None,371.5372838973999,372.536673784256,,,,,,,,,,,,,,,,,,,,,,,,,,,,,,,,,,,,,,,,,,,,,,,,,,,,,,,,,,,,,,,,02,00,English,A2,True,True,True,True,True,True,True,True,True,True,True,True,No,No,No,No,No,No,2020_Jul_02_1020,nibs_stage_1,3.2.3,59.99121794514219,
,,,,0,0,0,0,,,,,,,,,,,,,,,,,,,,,,,,,,,,,,,,,,,,,,,,,,375.5873558521271,None,"  - Task: Read out the displayed German sentence   
  - Melodious beep sound: Trial start              
  - Beep sound with increasing pitch: Rec. start   
  - Beep sound with decreasing pitch: Rec. finish  
",375.5873558521271,None,375.58140368461613,None,404.9884479045868,None,,407.038626909256,None,407.01819868087773,409.0219798088074,Meine Rosen haben einen sehr dünnen Stamm.,408.40526700019836,426.0229318141937,409.8053042650223,None,422.6059932470322,None,424.02281498908997,None,./data/Subject_02/Session_00/Exp_data/2020_Jul_02_1020/rec_cali_de_pre_trial_000.wav,,,,,,,,,,,,,,,,,,,,,,,,,,,,,,,,,,,,,,,,02,00,English,A2,True,True,True,True,True,True,True,True,True,True,True,True,No,No,No,No,No,No,2020_Jul_02_1020,nibs_stage_1,3.2.3,59.99121794514219,
,,,,1,0,1,0,,,,,,,,,,,,,,,,,,,,,,,,,,,,,,,,,,,,,,,,,,,,,,,,,,,,428.05681586265564,None,428.03604528903963,430.056382894516,"Aus den Augen, aus dem Sinn.",429.4563558101654,None,430.8397392988205,431.8567588329315,443.6403882265091,None,445.0572397708893,None,./data/Subject_02/Session_00/Exp_data/2020_Jul_02_1020/rec_cali_de_pre_trial_001.wav,,,,,,,,,,,,,,,,,,,,,,,,,,,,,,,,,,,,,,,,02,00,English,A2,True,True,True,True,True,True,True,True,True,True,True,True,No,No,No,No,No,No,2020_Jul_02_1020,nibs_stage_1,3.2.3,59.99121794514219,
,,,,2,0,2,0,,,,,,,,,,,,,,,,,,,,,,,,,,,,,,,,,,,,,,,,,,,,,,,,,,,,449.0912539958954,None,449.070574259758,451.09090185165405,Ihre Kinder liegen noch im Bett.,450.4907829761505,None,451.87416718006136,None,464.6914801359177,None,466.10842394828796,None,./data/Subject_02/Session_00/Exp_data/2020_Jul_02_1020/rec_cali_de_pre_trial_002.wav,,,,,,,,,,,,,,,,,,,,,,,,,,,,,,,,,,,,,,,,02,00,English,A2,True,True,True,True,True,True,True,True,True,True,True,True,No,No,No,No,No,No,2020_Jul_02_1020,nibs_stage_1,3.2.3,59.99121794514219,
,,,,3,0,3,0,,,,,,,,,,,,,,,,,,,,,,,,,,,,,,,,,,,,,,,,,,,,,,,,,,,,470.1090188026428,None,470.0881423711777,472.1087419986725,Kannst du bitte die Wäsche in die Sonne hängen?,471.5085988044739,None,472.8919892072678,None,485.6926553010941,486.70943880081177,487.1094539165497,None,./data/Subject_02/Session_00/Exp_data/2020_Jul_02_1020/rec_cali_de_pre_trial_003.wav,,,,,,,,,,,,,,,,,,,,,,,,,,,,,,,,,,,,,,,,02,00,English,A2,True,True,True,True,True,True,True,True,True,True,True,True,No,No,No,No,No,No,2020_Jul_02_1020,nibs_stage_1,3.2.3,59.99121794514219,
,,,,4,0,4,0,,,,,,,,,,,,,,,,,,,,,,,,,,,,,,,,,,,,,,,,,,,,,,,,,,,,491.1434419155121,None,491.12258026599886,493.14297795295715,Leni bewegt beim Lesen die Lippen.,492.5429527759552,None,493.9266822099686,None,506.7269761323929,None,508.1437318325043,None,./data/Subject_02/Session_00/Exp_data/2020_Jul_02_1020/rec_cali_de_pre_trial_004.wav,,,,,,,,,,,,,,,,,,,,,,,,,,,,,,,,,,,,,,,,02,00,English,A2,True,True,True,True,True,True,True,True,True,True,True,True,No,No,No,No,No,No,2020_Jul_02_1020,nibs_stage_1,3.2.3,59.99121794514219,
,,,,5,0,5,0,,,,,,,,,,,,,,,,,,,,,,,,,,,,,,,,,,,,,,,,,,,,,,,,,,,,512.1777489185333,None,512.1569604635239,514.1774668693542,Die Zähne werden geputzt und der Bart rasiert.,513.5773558616638,None,514.9607190847397,515.977472782135,527.7614292860031,528.7780859470367,529.1781368255615,None,./data/Subject_02/Session_00/Exp_data/2020_Jul_02_1020/rec_cali_de_pre_trial_005.wav,,,,,,,,,,,,,,,,,,,,,,,,,,,,,,,,,,,,,,,,02,00,English,A2,True,True,True,True,True,True,True,True,True,True,True,True,No,No,No,No,No,No,2020_Jul_02_1020,nibs_stage_1,3.2.3,59.99121794514219,
,,,,6,0,6,0,,,,,,,,,,,,,,,,,,,,,,,,,,,,,,,,,,,,,,,,,,,,,,,,,,,,533.2294647693634,None,533.1913683176041,535.2284638881683,"Ich kann dir gerne mein Fahrrad leihen, wenn du möchtest.",534.6284577846527,None,536.0119111299515,None,548.8124882936478,None,550.2292399406433,None,./data/Subject_02/Session_00/Exp_data/2020_Jul_02_1020/rec_cali_de_pre_trial_006.wav,,,,,,,,,,,,,,,,,,,,,,,,,,,,,,,,,,,,,,,,02,00,English,A2,True,True,True,True,True,True,True,True,True,True,True,True,No,No,No,No,No,No,2020_Jul_02_1020,nibs_stage_1,3.2.3,59.99121794514219,
,,,,7,0,7,0,,,,,,,,,,,,,,,,,,,,,,,,,,,,,,,,,,,,,,,,,,,,,,,,,,,,554.2463510036469,None,554.2091202497483,556.2462129592896,Sibylle hat braune Augen und blondes Haar.,555.6461908817291,None,557.0295641183853,558.0467698574066,569.8302953004837,570.846971988678,571.246988773346,None,./data/Subject_02/Session_00/Exp_data/2020_Jul_02_1020/rec_cali_de_pre_trial_007.wav,,,,,,,,,,,,,,,,,,,,,,,,,,,,,,,,,,,,,,,,02,00,English,A2,True,True,True,True,True,True,True,True,True,True,True,True,No,No,No,No,No,No,2020_Jul_02_1020,nibs_stage_1,3.2.3,59.99121794514219,
,,,,8,0,8,0,,,,,,,,,,,,,,,,,,,,,,,,,,,,,,,,,,,,,,,,,,,,,,,,,,,,575.264007806778,None,575.2269434690476,577.2639679908752,Im Sommer sind die Tage länger als im Winter.,576.664078950882,None,578.0474192857743,None,590.8479692697525,591.864718914032,592.2648289203644,None,./data/Subject_02/Session_00/Exp_data/2020_Jul_02_1020/rec_cali_de_pre_trial_008.wav,,,,,,,,,,,,,,,,,,,,,,,,,,,,,,,,,,,,,,,,02,00,English,A2,True,True,True,True,True,True,True,True,True,True,True,True,No,No,No,No,No,No,2020_Jul_02_1020,nibs_stage_1,3.2.3,59.99121794514219,
,,,,9,0,9,0,,,,,,,,,,,,,,,,,,,,,,,,,,,,,,,,,,,,,,,,,,,,,,,,,,,,596.2816407680511,None,596.2446462869644,598.2819669246674,Ich bürste dir die Haare.,597.681715965271,None,599.065046286583,None,611.8657381296158,None,613.2824938297272,None,./data/Subject_02/Session_00/Exp_data/2020_Jul_02_1020/rec_cali_de_pre_trial_009.wav,,,,,,,,,,,,,,,,,,,,,,,,,,,,,,,,,,,,,,,,02,00,English,A2,True,True,True,True,True,True,True,True,True,True,True,True,No,No,No,No,No,No,2020_Jul_02_1020,nibs_stage_1,3.2.3,59.99121794514219,
,,,,,,,,0,0,0,0,0,0,0,0,0,0,0,0,,,,,,,,,,,,,,,,,,,,,,,,,,,,,,,,,,,,,,,,,,,,,,,,,,,,,./data/Subject_02/Session_00/Exp_data/2020_Jul_02_1020/rec_QA_run_00_block_000_trial_000.wav,1078.2899918556213,None,Please remain seated until further instruction via the earphone.,662.4184417724609,None,871.8800458908081,None," - Task: Keep seated and relaxed with either      
             opening or closing eyes                  
 - Beep sound with decreasing pitch: Block finish 
",871.8800458908081,None,871.8589450597764,None,"Please keep relaxed and open your eyes.
Note: Blinking is allowed.",894.9475679397583,1074.989778995514,1093.5751609802246,None," - Task: Listen to the question& Speak out answer 
 - Melodious beep sound: Trial start              
 - Silent sound (blank): censored word            
 - Beep sound with increasing pitch: Rec. start   
 - Beep sound with decreasing pitch: Rec. finish  
",1093.5751609802246,None,1093.5355405569076,None,1132.9598319530487,None,Listen to the question and speak out your answer!,1136.4610648155212,None,1136.4378101110458,1138.4601209163666,Er hat die Verbindung zwischen zwei Zufälligkeiten hergestellt.,hergestellt,1137.8100480794906,1141.4936499595642,1141.910313105583,None,1153.0108461141585,None,None,None,02,00,English,A2,True,True,True,True,True,True,True,True,True,True,True,True,No,No,No,No,No,No,2020_Jul_02_1020,nibs_stage_1,3.2.3,59.99121794514219,
,,,,,,,,0,0,0,0,0,0,0,0,1,0,1,0,,,,,,,,,,,,,,,,,,,,,,,,,,,,,,,,,,,,,,,,,,,,,,,,,,,,,./data/Subject_02/Session_00/Exp_data/2020_Jul_02_1020/rec_QA_run_00_block_000_trial_001.wav,,,,,,,,,,,,,,,,,,,,,,,,,Listen to the question and speak out your answer!,1155.4952528476715,None,1155.457404565811,1157.4945538043976,Hans und Tina heirateten am Donnerstag in der Kirche.,heirateten,1156.877840256691,None,1160.9447362184524,None,1172.062016224861,None,None,None,02,00,English,A2,True,True,True,True,True,True,True,True,True,True,True,True,No,No,No,No,No,No,2020_Jul_02_1020,nibs_stage_1,3.2.3,59.99121794514219,
,,,,,,,,0,0,0,0,0,0,0,0,2,0,2,0,,,,,,,,,,,,,,,,,,,,,,,,,,,,,,,,,,,,,,,,,,,,,,,,,,,,,./data/Subject_02/Session_00/Exp_data/2020_Jul_02_1020/rec_QA_run_00_block_000_trial_002.wav,,,,,,,,,,,,,,,,,,,,,,,,,Listen to the question and speak out your answer!,1175.479830980301,None,1175.4587990522384,1177.479113817215,Sie gehen diese Straße geradeaus und biegen an der ersten Kreuzung rechts ab.,biegen,1176.8623831033706,None,1181.8961941957473,1182.9126839637756,1192.0632102251052,None,None,None,02,00,English,A2,True,True,True,True,True,True,True,True,True,True,True,True,No,No,No,No,No,No,2020_Jul_02_1020,nibs_stage_1,3.2.3,59.99121794514219,
,,,,,,,,0,0,0,0,0,0,0,0,3,0,3,0,,,,,,,,,,,,,,,,,,,,,,,,,,,,,,,,,,,,,,,,,,,,,,,,,,,,,./data/Subject_02/Session_00/Exp_data/2020_Jul_02_1020/rec_QA_run_00_block_000_trial_003.wav,,,,,,,,,,,,,,,,,,,,,,,,,Listen to the question and speak out your answer!,1195.4973719120026,None,1195.4597119569778,1197.4968528747559,Diese Speise schmeckt sauer.,schmeckt,1196.8801152467727,1198.896978855133,1199.2470111608504,1200.2636919021606,1212.0809840917586,None,None,None,02,00,English,A2,True,True,True,True,True,True,True,True,True,True,True,True,No,No,No,No,No,No,2020_Jul_02_1020,nibs_stage_1,3.2.3,59.99121794514219,
,,,,,,,,0,0,0,0,0,0,0,0,4,0,4,0,,,,,,,,,,,,,,,,,,,,,,,,,,,,,,,,,,,,,,,,,,,,,,,,,,,,,./data/Subject_02/Session_00/Exp_data/2020_Jul_02_1020/rec_QA_run_00_block_000_trial_004.wav,,,,,,,,,,,,,,,,,,,,,,,,,Listen to the question and speak out your answer!,1215.464600801468,None,1215.4441959142684,1217.4646599292755,"Kunden sollten Produkte sorgfältig prüfen, bevor sie sie kaufen.",prüfen,1216.8480322122573,1220.8982388973236,1221.2815100908279,None,1232.0487673044204,None,None,None,02,00,English,A2,True,True,True,True,True,True,True,True,True,True,True,True,No,No,No,No,No,No,2020_Jul_02_1020,nibs_stage_1,3.2.3,59.99121794514219,
,,,,,,,,0,0,0,0,0,0,0,0,5,0,5,0,,,,,,,,,,,,,,,,,,,,,,,,,,,,,,,,,,,,,,,,,,,,,,,,,,,,,./data/Subject_02/Session_00/Exp_data/2020_Jul_02_1020/rec_QA_run_00_block_000_trial_005.wav,,,,,,,,,,,,,,,,,,,,,,,,,Listen to the question and speak out your answer!,1235.4491147994995,None,1235.4121403455733,1237.449126958847,Karneval wird jedes Jahr im Februar oder im März gefeiert.,gefeiert,1236.7992872953414,None,1241.0326442480086,None,1252.0003001451491,None,1253.4167029857635,None,02,00,English,A2,True,True,True,True,True,True,True,True,True,True,True,True,No,No,No,No,No,No,2020_Jul_02_1020,nibs_stage_1,3.2.3,59.99121794514219,
,,,,,,,,0,0,0,0,0,0,0,0,6,0,6,0,,,,,,,,,,,,,,,,,,,,,,,,,,,,,,,,,,,,,,,,,,,,,,,,,,,,,./data/Subject_02/Session_00/Exp_data/2020_Jul_02_1020/rec_QA_run_00_block_000_trial_006.wav,,,,,,,,,,,,,,,,,,,,,,,,,Listen to the question and speak out your answer!,1255.4842228889465,None,1255.4464537620543,1257.4836058616638,Mir ist etwas Unangenehmes passiert.,passiert,1256.8668732404708,None,1259.633777117729,1260.6504378318787,1272.0677711725234,None,None,None,02,00,English,A2,True,True,True,True,True,True,True,True,True,True,True,True,No,No,No,No,No,No,2020_Jul_02_1020,nibs_stage_1,3.2.3,59.99121794514219,
,,,,,,,,0,0,0,0,0,0,0,0,7,0,7,0,,,,,,,,,,,,,,,,,,,,,,,,,,,,,,,,,,,,,,,,,,,,,,,,,,,,,./data/Subject_02/Session_00/Exp_data/2020_Jul_02_1020/rec_QA_run_00_block_000_trial_007.wav,,,,,,,,,,,,,,,,,,,,,,,,,Listen to the question and speak out your answer!,1275.4680469036102,None,1275.4315492868423,1277.4680769443512,Der Mond scheint hell.,scheint,1276.8182410955428,1278.2014269828796,1278.618323302269,None,1292.0191581010818,None,None,None,02,00,English,A2,True,True,True,True,True,True,True,True,True,True,True,True,No,No,No,No,No,No,2020_Jul_02_1020,nibs_stage_1,3.2.3,59.99121794514219,
,,,,,,,,0,0,0,0,0,0,0,0,8,0,8,0,,,,,,,,,,,,,,,,,,,,,,,,,,,,,,,,,,,,,,,,,,,,,,,,,,,,,./data/Subject_02/Session_00/Exp_data/2020_Jul_02_1020/rec_QA_run_00_block_000_trial_008.wav,,,,,,,,,,,,,,,,,,,,,,,,,Listen to the question and speak out your answer!,1295.469809770584,None,1295.4487060785293,1297.4691557884216,Arbeitslos-sein bedeutet: man hat keinen Arbeits-Platz.,bedeutet,1296.8524732351302,1300.2693548202515,1300.6526760816573,None,1312.053718304634,None,None,None,02,00,English,A2,True,True,True,True,True,True,True,True,True,True,True,True,No,No,No,No,No,No,2020_Jul_02_1020,nibs_stage_1,3.2.3,59.99121794514219,
,,,,,,,,0,0,0,0,0,0,0,0,9,0,9,0,,,,,,,,,,,,,,,,,,,,,,,,,,,,,,,,,,,,,,,,,,,,,,,,,,,,,./data/Subject_02/Session_00/Exp_data/2020_Jul_02_1020/rec_QA_run_00_block_000_trial_009.wav,,,,,,,,,,,,,,,,,,,,,,,,,Listen to the question and speak out your answer!,1315.4704909324646,None,1315.449798989296,1317.4702138900757,"Ich wusste die Antwort nicht, also musste ich raten.",raten,1316.8202740907668,None,1320.2873732805251,None,1332.0211641550063,None,None,None,02,00,English,A2,True,True,True,True,True,True,True,True,True,True,True,True,No,No,No,No,No,No,2020_Jul_02_1020,nibs_stage_1,3.2.3,59.99121794514219,
,,,,,,,,0,0,0,0,0,0,0,0,10,0,10,0,,,,,,,,,,,,,,,,,,,,,,,,,,,,,,,,,,,,,,,,,,,,,,,,,,,,,./data/Subject_02/Session_00/Exp_data/2020_Jul_02_1020/rec_QA_run_00_block_000_trial_010.wav,,,,,,,,,,,,,,,,,,,,,,,,,Listen to the question and speak out your answer!,1335.471335887909,None,1335.4342476844786,1337.472004890442,Bei der Bewerbung müssen Sie Ihre Motivation begründen.,begründen,1336.8546912431716,None,1340.4882442712783,None,1352.0223321676253,None,None,None,02,00,English,A2,True,True,True,True,True,True,True,True,True,True,True,True,No,No,No,No,No,No,2020_Jul_02_1020,nibs_stage_1,3.2.3,59.99121794514219,
,,,,,,,,0,0,0,0,0,0,0,0,11,0,11,0,,,,,,,,,,,,,,,,,,,,,,,,,,,,,,,,,,,,,,,,,,,,,,,,,,,,,./data/Subject_02/Session_00/Exp_data/2020_Jul_02_1020/rec_QA_run_00_block_000_trial_011.wav,,,,,,,,,,,,,,,,,,,,,,,,,Listen to the question and speak out your answer!,1355.4730818271637,None,1355.4356886863707,1357.472473859787,Normalerweise lese ich Zeitungen online.,lese,1356.822484230995,None,1360.1896102190017,None,1372.023576235771,1373.0400788784027,None,None,02,00,English,A2,True,True,True,True,True,True,True,True,True,True,True,True,No,No,No,No,No,No,2020_Jul_02_1020,nibs_stage_1,3.2.3,59.99121794514219,
,,,,,,,,0,0,0,0,0,0,0,0,12,0,12,0,,,,,,,,,,,,,,,,,,,,,,,,,,,,,,,,,,,,,,,,,,,,,,,,,,,,,./data/Subject_02/Session_00/Exp_data/2020_Jul_02_1020/rec_QA_run_00_block_000_trial_012.wav,,,,,,,,,,,,,,,,,,,,,,,,,Listen to the question and speak out your answer!,1375.4575688838959,None,1375.419832444191,1377.456993818283,Das Fleisch wurde über dem offenen Feuer gegrillt.,gegrillt,1376.8070301771163,None,1380.207132077217,1381.223888874054,1392.0078902006148,1393.0245440006256,1393.4245898723602,None,02,00,English,A2,True,True,True,True,True,True,True,True,True,True,True,True,No,No,No,No,No,No,2020_Jul_02_1020,nibs_stage_1,3.2.3,59.99121794514219,
,,,,,,,,0,0,0,0,0,0,0,0,13,0,13,0,,,,,,,,,,,,,,,,,,,,,,,,,,,,,,,,,,,,,,,,,,,,,,,,,,,,,./data/Subject_02/Session_00/Exp_data/2020_Jul_02_1020/rec_QA_run_00_block_000_trial_013.wav,,,,,,,,,,,,,,,,,,,,,,,,,Listen to the question and speak out your answer!,1395.4927599430084,None,1395.470977950096,1397.492283821106,Darf ich mit einem Scheck bezahlen?,bezahlen,1396.8749811410903,None,1399.1415161848067,1400.1585319042206,1412.075560069084,None,None,None,02,00,English,A2,True,True,True,True,True,True,True,True,True,True,True,True,No,No,No,No,No,No,2020_Jul_02_1020,nibs_stage_1,3.2.3,59.99121794514219,
,,,,,,,,0,0,0,0,0,0,0,0,14,0,14,0,,,,,,,,,,,,,,,,,,,,,,,,,,,,,,,,,,,,,,,,,,,,,,,,,,,,,./data/Subject_02/Session_00/Exp_data/2020_Jul_02_1020/rec_QA_run_00_block_000_trial_014.wav,,,,,,,,,,,,,,,,,,,,,,,,,Listen to the question and speak out your answer!,1415.4769749641418,None,1415.4388093709945,1417.4758899211884,"Bevor man eine Orange essen kann, muss man sie erst schneiden oder schälen.",schälen,1416.8258361577987,1421.209457874298,1421.592814183235,1422.6094439029694,1432.026700234413,1433.0434679985046,None,None,02,00,English,A2,True,True,True,True,True,True,True,True,True,True,True,True,No,No,No,No,No,No,2020_Jul_02_1020,nibs_stage_1,3.2.3,59.99121794514219,
,,,,,,,,0,0,0,0,0,0,0,0,15,0,15,0,,,,,,,,,,,,,,,,,,,,,,,,,,,,,,,,,,,,,,,,,,,,,,,,,,,,,./data/Subject_02/Session_00/Exp_data/2020_Jul_02_1020/rec_QA_run_00_block_000_trial_015.wav,,,,,,,,,,,,,,,,,,,,,,,,,Listen to the question and speak out your answer!,1435.4609909057617,None,1435.4234182596206,1437.4603328704834,Am Geburtstag hat mein Vater mir einen Geschenk geschenkt.,geschenkt,1436.8436062097549,None,1440.543817257881,1441.5605919361115,1452.0444900751113,1453.0612108707428,None,None,02,00,English,A2,True,True,True,True,True,True,True,True,True,True,True,True,No,No,No,No,No,No,2020_Jul_02_1020,nibs_stage_1,3.2.3,59.99121794514219,
,,,,,,,,0,0,0,0,0,0,0,0,16,0,16,0,,,,,,,,,,,,,,,,,,,,,,,,,,,,,,,,,,,,,,,,,,,,,,,,,,,,,./data/Subject_02/Session_00/Exp_data/2020_Jul_02_1020/rec_QA_run_00_block_000_trial_016.wav,,,,,,,,,,,,,,,,,,,,,,,,,Listen to the question and speak out your answer!,1455.4629797935486,None,1455.4412159204483,1457.4617447853088,Die zwei Männer bewerben sich um einen gleichen Arbeitsplatz.,bewerben,1456.844693160057,1460.5618908405304,1460.9449441194533,1461.9616878032684,1472.0455631971358,1473.062612771988,None,None,02,00,English,A2,True,True,True,True,True,True,True,True,True,True,True,True,No,No,No,No,No,No,2020_Jul_02_1020,nibs_stage_1,3.2.3,59.99121794514219,
,,,,,,,,0,0,0,0,0,0,0,0,17,0,17,0,,,,,,,,,,,,,,,,,,,,,,,,,,,,,,,,,,,,,,,,,,,,,,,,,,,,,./data/Subject_02/Session_00/Exp_data/2020_Jul_02_1020/rec_QA_run_00_block_000_trial_017.wav,,,,,,,,,,,,,,,,,,,,,,,,,Listen to the question and speak out your answer!,1475.463327884674,None,1475.4420840024948,1477.4625539779663,Ich kann mich noch gut an meinen ersten Schultag erinnern.,erinnern,1476.8123852968215,1479.896006822586,1480.3128971815108,1481.3296868801117,1492.0136410951613,None,None,None,02,00,English,A2,True,True,True,True,True,True,True,True,True,True,True,True,No,No,No,No,No,No,2020_Jul_02_1020,nibs_stage_1,3.2.3,59.99121794514219,
,,,,,,,,0,0,0,0,0,0,0,0,18,0,18,0,,,,,,,,,,,,,,,,,,,,,,,,,,,,,,,,,,,,,,,,,,,,,,,,,,,,,./data/Subject_02/Session_00/Exp_data/2020_Jul_02_1020/rec_QA_run_00_block_000_trial_018.wav,,,,,,,,,,,,,,,,,,,,,,,,,Listen to the question and speak out your answer!,1495.4651679992676,None,1495.4431518793106,1497.4640898704529,Können Sie mir einen guten Augenarzt empfehlen?,empfehlen,1496.8469171285628,1499.6637687683105,1500.0471062421798,None,1512.0477931261062,1513.0648019313812,None,None,02,00,English,A2,True,True,True,True,True,True,True,True,True,True,True,True,No,No,No,No,No,No,2020_Jul_02_1020,nibs_stage_1,3.2.3,59.99121794514219,
,,,,,,,,0,0,0,0,0,0,0,0,19,0,19,0,,,,,,,,,,,,,,,,,,,,,,,,,,,,,,,,,,,,,,,,,,,,,,,,,,,,,./data/Subject_02/Session_00/Exp_data/2020_Jul_02_1020/rec_QA_run_00_block_000_trial_019.wav,,,,,,,,,,,,,,,,,,,,,,,,,Listen to the question and speak out your answer!,1515.4485669136047,None,1515.4109942674636,1517.4479899406433,"Der Arzt hat gesagt, ich sähe völlig gesund aus.",gesagt,1516.7981991529464,None,1520.2984342336654,None,1532.0154990911483,1533.0322818756104,None,None,02,00,English,A2,True,True,True,True,True,True,True,True,True,True,True,True,No,No,No,No,No,No,2020_Jul_02_1020,nibs_stage_1,3.2.3,59.99121794514219,
,,,,,,,,0,0,0,0,0,0,0,0,20,0,20,0,,,,,,,,,,,,,,,,,,,,,,,,,,,,,,,,,,,,,,,,,,,,,,,,,,,,,./data/Subject_02/Session_00/Exp_data/2020_Jul_02_1020/rec_QA_run_00_block_000_trial_020.wav,,,,,,,,,,,,,,,,,,,,,,,,,Listen to the question and speak out your answer!,1535.4661889076233,None,1535.445476937294,1537.4658639431,"Mein Opa war beim Ohren-Arzt, weil er so schlecht hört.",hört,1536.8491871118545,None,1540.616336083412,None,1552.0500690698623,None,None,None,02,00,English,A2,True,True,True,True,True,True,True,True,True,True,True,True,No,No,No,No,No,No,2020_Jul_02_1020,nibs_stage_1,3.2.3,59.99121794514219,
,,,,,,,,0,0,0,0,0,0,0,0,21,0,21,0,,,,,,,,,,,,,,,,,,,,,,,,,,,,,,,,,,,,,,,,,,,,,,,,,,,,,./data/Subject_02/Session_00/Exp_data/2020_Jul_02_1020/rec_QA_run_00_block_000_trial_021.wav,,,,,,,,,,,,,,,,,,,,,,,,,Listen to the question and speak out your answer!,1555.4841058254242,None,1555.44650785923,1557.4837048053741,Die Medien und Reporter sollten die Wahrheit berichten.,berichten,1556.8335461378097,1559.9504039287567,1560.3337301969527,None,1572.0344021081924,1573.051335811615,None,None,02,00,English,A2,True,True,True,True,True,True,True,True,True,True,True,True,No,No,No,No,No,No,2020_Jul_02_1020,nibs_stage_1,3.2.3,59.99121794514219,
,,,,,,,,0,0,0,0,0,0,0,0,22,0,22,0,,,,,,,,,,,,,,,,,,,,,,,,,,,,,,,,,,,,,,,,,,,,,,,,,,,,,./data/Subject_02/Session_00/Exp_data/2020_Jul_02_1020/rec_QA_run_00_block_000_trial_022.wav,,,,,,,,,,,,,,,,,,,,,,,,,Listen to the question and speak out your answer!,1575.4855020046234,None,1575.4642149686813,1577.4846999645233,Das Friedensabkommen hat den Krieg beendet.,beendet,1576.867995238304,None,1579.8015491724013,1580.8184549808502,1592.0689081907271,None,None,None,02,00,English,A2,True,True,True,True,True,True,True,True,True,True,True,True,No,No,No,No,No,No,2020_Jul_02_1020,nibs_stage_1,3.2.3,59.99121794514219,
,,,,,,,,0,0,0,0,0,0,0,0,23,0,23,0,,,,,,,,,,,,,,,,,,,,,,,,,,,,,,,,,,,,,,,,,,,,,,,,,,,,,./data/Subject_02/Session_00/Exp_data/2020_Jul_02_1020/rec_QA_run_00_block_000_trial_023.wav,,,,,,,,,,,,,,,,,,,,,,,,,Listen to the question and speak out your answer!,1595.4690217971802,None,1595.4320344686507,1597.469085931778,In diesem Krankenhaus werden viele Patienten behandelt.,behandelt,1596.8192851305007,None,1600.7191962957381,None,1612.0199072122573,None,None,None,02,00,English,A2,True,True,True,True,True,True,True,True,True,True,True,True,No,No,No,No,No,No,2020_Jul_02_1020,nibs_stage_1,3.2.3,59.99121794514219,
,,,,,,,,0,0,0,0,0,0,0,0,24,0,24,0,,,,,,,,,,,,,,,,,,,,,,,,,,,,,,,,,,,,,,,,,,,,,,,,,,,,,./data/Subject_02/Session_00/Exp_data/2020_Jul_02_1020/rec_QA_run_00_block_000_trial_024.wav,,,,,,,,,,,,,,,,,,,,,,,,,Listen to the question and speak out your answer!,1615.4540197849274,None,1615.4164454698562,1617.4535639286041,"Zur Not kann ich noch was kochen, aber ich würde lieber im Restaurant essen",kochen,1616.8035480737685,None,1621.2038342714309,1622.2204658985138,1632.0043132066726,1633.0210928916931,1633.4211139678955,None,02,00,English,A2,True,True,True,True,True,True,True,True,True,True,True,True,No,No,No,No,No,No,2020_Jul_02_1020,nibs_stage_1,3.2.3,59.99121794514219,
,,,,,,,,0,0,0,0,0,0,0,0,,,,,,,,,,,,,,,,,,,,,,,,,,,,,,,,,,,,,,,,,,,,,,,,,,,,,,,,,,1636.4713399410248,None,,,,,,,,,,,,,,,,,,,,,,,,,,,,,,,,,,,,,,02,00,English,A2,True,True,True,True,True,True,True,True,True,True,True,True,No,No,No,No,No,No,2020_Jul_02_1020,nibs_stage_1,3.2.3,59.99121794514219,
,,,,,,,,0,0,0,0,1,0,1,0,0,0,0,0,,,,,,,,,,,,,,,,,,,,,,,,,,,,,,,,,,,,,,,,,,,,,,,,,,,,,./data/Subject_02/Session_00/Exp_data/2020_Jul_02_1020/rec_QA_run_00_block_001_trial_000.wav,,,,,,,,,,,,,,,,,,,,,,,,,Listen to the question and speak out your answer!,1693.291883945465,None,1693.252254462242,1695.2910528182983,Der Vogel flog zurück zu seinem Nest.,flog,1694.6743881464004,None,1697.5078820943831,None,1709.8752450704574,None,None,None,02,00,English,A2,True,True,True,True,True,True,True,True,True,True,True,True,No,No,No,No,No,No,2020_Jul_02_1020,nibs_stage_1,3.2.3,59.99121794514219,
,,,,,,,,0,0,0,0,1,0,1,0,1,0,1,0,,,,,,,,,,,,,,,,,,,,,,,,,,,,,,,,,,,,,,,,,,,,,,,,,,,,,./data/Subject_02/Session_00/Exp_data/2020_Jul_02_1020/rec_QA_run_00_block_001_trial_001.wav,,,,,,,,,,,,,,,,,,,,,,,,,Listen to the question and speak out your answer!,1713.3254539966583,None,1713.3053168535232,1715.3255228996277,Die Ärztin hat Andrea ein Rezept ausgestellt.,ausgestellt,1714.708800292015,1717.7589538097382,1718.14233109951,1719.159070968628,1729.909892296791,1730.9265439510345,None,None,02,00,English,A2,True,True,True,True,True,True,True,True,True,True,True,True,No,No,No,No,No,No,2020_Jul_02_1020,nibs_stage_1,3.2.3,59.99121794514219,
,,,,,,,,0,0,0,0,1,0,1,0,2,0,2,0,,,,,,,,,,,,,,,,,,,,,,,,,,,,,,,,,,,,,,,,,,,,,,,,,,,,,./data/Subject_02/Session_00/Exp_data/2020_Jul_02_1020/rec_QA_run_00_block_001_trial_002.wav,,,,,,,,,,,,,,,,,,,,,,,,,Listen to the question and speak out your answer!,1733.3106439113617,None,1733.2728473901748,1735.310171842575,Die Bergarbeiter fuhren jeden Tag in die Grube.,fuhren,1734.659895157814,None,1738.26008913517,1739.2768108844757,1749.860707259178,1750.8774518966675,None,None,02,00,English,A2,True,True,True,True,True,True,True,True,True,True,True,True,No,No,No,No,No,No,2020_Jul_02_1020,nibs_stage_1,3.2.3,59.99121794514219,
,,,,,,,,0,0,0,0,1,0,1,0,3,0,3,0,,,,,,,,,,,,,,,,,,,,,,,,,,,,,,,,,,,,,,,,,,,,,,,,,,,,,./data/Subject_02/Session_00/Exp_data/2020_Jul_02_1020/rec_QA_run_00_block_001_trial_003.wav,,,,,,,,,,,,,,,,,,,,,,,,,Listen to the question and speak out your answer!,1753.3125109672546,None,1753.2908100366592,1755.3110558986664,"Hans arbeitet in einer Schule, er ist der Direktor.",arbeitet,1754.6943201780318,1757.87810587883,1758.2614121198653,None,1769.8952142953872,None,None,None,02,00,English,A2,True,True,True,True,True,True,True,True,True,True,True,True,No,No,No,No,No,No,2020_Jul_02_1020,nibs_stage_1,3.2.3,59.99121794514219,
,,,,,,,,0,0,0,0,1,0,1,0,4,0,4,0,,,,,,,,,,,,,,,,,,,,,,,,,,,,,,,,,,,,,,,,,,,,,,,,,,,,,./data/Subject_02/Session_00/Exp_data/2020_Jul_02_1020/rec_QA_run_00_block_001_trial_004.wav,,,,,,,,,,,,,,,,,,,,,,,,,Listen to the question and speak out your answer!,1773.312443971634,None,1773.291649031639,1775.312136888504,"Hiermit wird bestätigt, dass Frau Müller das Praktikum bei uns absolviert hat.",bestätigt,1774.6955902338027,1779.2792208194733,1779.6623122453689,None,1789.8794941663741,1790.8965258598328,None,None,02,00,English,A2,True,True,True,True,True,True,True,True,True,True,True,True,No,No,No,No,No,No,2020_Jul_02_1020,nibs_stage_1,3.2.3,59.99121794514219,
,,,,,,,,0,0,0,0,1,0,1,0,5,0,5,0,,,,,,,,,,,,,,,,,,,,,,,,,,,,,,,,,,,,,,,,,,,,,,,,,,,,,./data/Subject_02/Session_00/Exp_data/2020_Jul_02_1020/rec_QA_run_00_block_001_trial_005.wav,,,,,,,,,,,,,,,,,,,,,,,,,Listen to the question and speak out your answer!,1793.331081867218,None,1793.309358048439,1795.3302779197693,"Habt ihr eine Ahnung, wie der Unfall passiert ist?",passiert,1794.7131101846694,1797.7967429161072,1798.180017209053,None,1809.9139041662215,None,None,None,02,00,English,A2,True,True,True,True,True,True,True,True,True,True,True,True,No,No,No,No,No,No,2020_Jul_02_1020,nibs_stage_1,3.2.3,59.99121794514219,
,,,,,,,,0,0,0,0,1,0,1,0,6,0,6,0,,,,,,,,,,,,,,,,,,,,,,,,,,,,,,,,,,,,,,,,,,,,,,,,,,,,,./data/Subject_02/Session_00/Exp_data/2020_Jul_02_1020/rec_QA_run_00_block_001_trial_006.wav,,,,,,,,,,,,,,,,,,,,,,,,,Listen to the question and speak out your answer!,1813.3148188591003,None,1813.2774243116378,1815.3144509792328,"Manchmal glaube ich, ich bin zu pessimistisch.",glaube,1814.6641812086104,None,1818.0646130800246,None,1829.8650662660598,None,None,None,02,00,English,A2,True,True,True,True,True,True,True,True,True,True,True,True,No,No,No,No,No,No,2020_Jul_02_1020,nibs_stage_1,3.2.3,59.99121794514219,
,,,,,,,,0,0,0,0,1,0,1,0,7,0,7,0,,,,,,,,,,,,,,,,,,,,,,,,,,,,,,,,,,,,,,,,,,,,,,,,,,,,,./data/Subject_02/Session_00/Exp_data/2020_Jul_02_1020/rec_QA_run_00_block_001_trial_007.wav,,,,,,,,,,,,,,,,,,,,,,,,,Listen to the question and speak out your answer!,1833.299204826355,None,1833.261548256874,1835.2991209030151,"Ich nehme lieber den Bus, da gibt es nicht so viele Haltestellen.",gibt,1834.6486022233962,None,1839.0490302801131,1840.0656759738922,1849.849505162239,None,1851.2663419246674,None,02,00,English,A2,True,True,True,True,True,True,True,True,True,True,True,True,No,No,No,No,No,No,2020_Jul_02_1020,nibs_stage_1,3.2.3,59.99121794514219,
,,,,,,,,0,0,0,0,1,0,1,0,8,0,8,0,,,,,,,,,,,,,,,,,,,,,,,,,,,,,,,,,,,,,,,,,,,,,,,,,,,,,./data/Subject_02/Session_00/Exp_data/2020_Jul_02_1020/rec_QA_run_00_block_001_trial_008.wav,,,,,,,,,,,,,,,,,,,,,,,,,Listen to the question and speak out your answer!,1853.334193944931,None,1853.3127300024032,1855.333079814911,Die Meere sollte man nicht so leer fischen.,fischen,1854.7163572072982,None,1857.4165811300277,None,1869.9005040884017,None,None,None,02,00,English,A2,True,True,True,True,True,True,True,True,True,True,True,True,No,No,No,No,No,No,2020_Jul_02_1020,nibs_stage_1,3.2.3,59.99121794514219,
,,,,,,,,0,0,0,0,1,0,1,0,9,0,9,0,,,,,,,,,,,,,,,,,,,,,,,,,,,,,,,,,,,,,,,,,,,,,,,,,,,,,./data/Subject_02/Session_00/Exp_data/2020_Jul_02_1020/rec_QA_run_00_block_001_trial_009.wav,,,,,,,,,,,,,,,,,,,,,,,,,Listen to the question and speak out your answer!,1873.3183019161224,None,1873.2972559213638,1875.3174858093262,"Er kann sie nicht hören, weil sie zu leise spricht.",hören,1874.6676602125167,1877.5843608379364,1878.0010282754897,None,1889.868254160881,1890.8853669166565,None,None,02,00,English,A2,True,True,True,True,True,True,True,True,True,True,True,True,No,No,No,No,No,No,2020_Jul_02_1020,nibs_stage_1,3.2.3,59.99121794514219,
,,,,,,,,0,0,0,0,1,0,1,0,10,0,10,0,,,,,,,,,,,,,,,,,,,,,,,,,,,,,,,,,,,,,,,,,,,,,,,,,,,,,./data/Subject_02/Session_00/Exp_data/2020_Jul_02_1020/rec_QA_run_00_block_001_trial_010.wav,,,,,,,,,,,,,,,,,,,,,,,,,Listen to the question and speak out your answer!,1893.3024327754974,None,1893.2649533510207,1895.3019878864288,Einige Eltern haben ihren Töchtern rosa Kleider gekauft.,gekauft,1894.6517562627791,None,1898.585351204872,None,1909.852629160881,None,1911.2694449424744,None,02,00,English,A2,True,True,True,True,True,True,True,True,True,True,True,True,No,No,No,No,No,No,2020_Jul_02_1020,nibs_stage_1,3.2.3,59.99121794514219,
,,,,,,,,0,0,0,0,1,0,1,0,11,0,11,0,,,,,,,,,,,,,,,,,,,,,,,,,,,,,,,,,,,,,,,,,,,,,,,,,,,,,./data/Subject_02/Session_00/Exp_data/2020_Jul_02_1020/rec_QA_run_00_block_001_trial_011.wav,,,,,,,,,,,,,,,,,,,,,,,,,Listen to the question and speak out your answer!,1913.337100982666,None,1913.3158330202102,1915.3363149166107,Ich surfe gern im Internet und chatte mit Freunden.,chatte,1914.686680293083,None,1918.2196712255477,1919.2365148067474,1929.8870391607284,1930.9037988185883,None,None,02,00,English,A2,True,True,True,True,True,True,True,True,True,True,True,True,No,No,No,No,No,No,2020_Jul_02_1020,nibs_stage_1,3.2.3,59.99121794514219,
,,,,,,,,0,0,0,0,1,0,1,0,12,0,12,0,,,,,,,,,,,,,,,,,,,,,,,,,,,,,,,,,,,,,,,,,,,,,,,,,,,,,./data/Subject_02/Session_00/Exp_data/2020_Jul_02_1020/rec_QA_run_00_block_001_trial_012.wav,,,,,,,,,,,,,,,,,,,,,,,,,Listen to the question and speak out your answer!,1933.354586839676,None,1933.316921877861,1935.3539497852325,Mein Vater arbeitet in einer Papierfabrik.,arbeitet,1934.7041880846023,1937.5541498661041,1937.937492108345,None,1949.9048630952834,None,None,None,02,00,English,A2,True,True,True,True,True,True,True,True,True,True,True,True,No,No,No,No,No,No,2020_Jul_02_1020,nibs_stage_1,3.2.3,59.99121794514219,
,,,,,,,,0,0,0,0,1,0,1,0,13,0,13,0,,,,,,,,,,,,,,,,,,,,,,,,,,,,,,,,,,,,,,,,,,,,,,,,,,,,,./data/Subject_02/Session_00/Exp_data/2020_Jul_02_1020/rec_QA_run_00_block_001_trial_013.wav,,,,,,,,,,,,,,,,,,,,,,,,,Listen to the question and speak out your answer!,1953.3223309516907,None,1953.284759712219,1955.3216907978058,Wir müssen die Kunden jeden Monat über ihren finanziellen Status informieren.,informieren,1954.6716980695724,None,1959.7386462450027,None,1969.8725220918654,None,None,None,02,00,English,A2,True,True,True,True,True,True,True,True,True,True,True,True,No,No,No,No,No,No,2020_Jul_02_1020,nibs_stage_1,3.2.3,59.99121794514219,
,,,,,,,,0,0,0,0,1,0,1,0,14,0,14,0,,,,,,,,,,,,,,,,,,,,,,,,,,,,,,,,,,,,,,,,,,,,,,,,,,,,,./data/Subject_02/Session_00/Exp_data/2020_Jul_02_1020/rec_QA_run_00_block_001_trial_014.wav,,,,,,,,,,,,,,,,,,,,,,,,,Listen to the question and speak out your answer!,1973.3235259056091,None,1973.3024460554122,1975.322825908661,"Das Essen riecht so gut, was kochst du heute?",kochst,1974.7061981916427,None,1977.9065501451491,None,1989.9071712255477,1990.9237549304962,None,None,02,00,English,A2,True,True,True,True,True,True,True,True,True,True,True,True,No,No,No,No,No,No,2020_Jul_02_1020,nibs_stage_1,3.2.3,59.99121794514219,
,,,,,,,,0,0,0,0,1,0,1,0,15,0,15,0,,,,,,,,,,,,,,,,,,,,,,,,,,,,,,,,,,,,,,,,,,,,,,,,,,,,,./data/Subject_02/Session_00/Exp_data/2020_Jul_02_1020/rec_QA_run_00_block_001_trial_015.wav,,,,,,,,,,,,,,,,,,,,,,,,,Listen to the question and speak out your answer!,1993.3071579933167,None,1993.2701363325118,1995.3072338104248,Einige NGOs schützen die Rechte der Menschen.,schützen,1994.657231068611,1997.6740369796753,1998.0906913042068,None,2009.8746530771255,2010.8914279937744,None,None,02,00,English,A2,True,True,True,True,True,True,True,True,True,True,True,True,No,No,No,No,No,No,2020_Jul_02_1020,nibs_stage_1,3.2.3,59.99121794514219,
,,,,,,,,0,0,0,0,1,0,1,0,16,0,16,0,,,,,,,,,,,,,,,,,,,,,,,,,,,,,,,,,,,,,,,,,,,,,,,,,,,,,./data/Subject_02/Session_00/Exp_data/2020_Jul_02_1020/rec_QA_run_00_block_001_trial_016.wav,,,,,,,,,,,,,,,,,,,,,,,,,Listen to the question and speak out your answer!,2013.3251779079437,None,2013.3044609308242,2015.3249759674072,Der Unterricht dauert meistens bis um dreizehn Uhr.,dauert,2014.674895262718,None,2018.108422255516,None,2029.875717139244,None,None,None,02,00,English,A2,True,True,True,True,True,True,True,True,True,True,True,True,No,No,No,No,No,No,2020_Jul_02_1020,nibs_stage_1,3.2.3,59.99121794514219,
,,,,,,,,0,0,0,0,1,0,1,0,17,0,17,0,,,,,,,,,,,,,,,,,,,,,,,,,,,,,,,,,,,,,,,,,,,,,,,,,,,,,./data/Subject_02/Session_00/Exp_data/2020_Jul_02_1020/rec_QA_run_00_block_001_trial_017.wav,,,,,,,,,,,,,,,,,,,,,,,,,Listen to the question and speak out your answer!,2033.310154914856,None,2033.2725002527236,2035.3093948364258,Ich habe einen Platz für die Oper reserviert.,reserviert,2034.659303164482,None,2037.8261561155318,None,2049.86005423069,None,None,None,02,00,English,A2,True,True,True,True,True,True,True,True,True,True,True,True,No,No,No,No,No,No,2020_Jul_02_1020,nibs_stage_1,3.2.3,59.99121794514219,
,,,,,,,,0,0,0,0,1,0,1,0,18,0,18,0,,,,,,,,,,,,,,,,,,,,,,,,,,,,,,,,,,,,,,,,,,,,,,,,,,,,,./data/Subject_02/Session_00/Exp_data/2020_Jul_02_1020/rec_QA_run_00_block_001_trial_018.wav,,,,,,,,,,,,,,,,,,,,,,,,,Listen to the question and speak out your answer!,2053.2944769859314,None,2053.2569262742995,2055.2940077781677,Das Kleid wird fünfzehn Euro kosten.,kosten,2054.6437182188033,2057.0941319465637,2057.477190232277,2058.4942128658295,2069.8447801828383,2070.861350774765,2071.2613039016724,None,02,00,English,A2,True,True,True,True,True,True,True,True,True,True,True,True,No,No,No,No,No,No,2020_Jul_02_1020,nibs_stage_1,3.2.3,59.99121794514219,
,,,,,,,,0,0,0,0,1,0,1,0,19,0,19,0,,,,,,,,,,,,,,,,,,,,,,,,,,,,,,,,,,,,,,,,,,,,,,,,,,,,,./data/Subject_02/Session_00/Exp_data/2020_Jul_02_1020/rec_QA_run_00_block_001_trial_019.wav,,,,,,,,,,,,,,,,,,,,,,,,,Listen to the question and speak out your answer!,2073.311514854431,None,2073.274417376518,2075.3117728233337,"Bevor es Autos gab, sind die Leute mit der Eisenbahn gefahren.",gefahren,2074.6948261022567,2078.5452568531036,2078.928341126442,None,2089.8959221601485,2090.912334918976,None,None,02,00,English,A2,True,True,True,True,True,True,True,True,True,True,True,True,No,No,No,No,No,No,2020_Jul_02_1020,nibs_stage_1,3.2.3,59.99121794514219,
,,,,,,,,0,0,0,0,1,0,1,0,20,0,20,0,,,,,,,,,,,,,,,,,,,,,,,,,,,,,,,,,,,,,,,,,,,,,,,,,,,,,./data/Subject_02/Session_00/Exp_data/2020_Jul_02_1020/rec_QA_run_00_block_001_trial_020.wav,,,,,,,,,,,,,,,,,,,,,,,,,Listen to the question and speak out your answer!,2093.3124787807465,None,2093.292353081703,2095.3125569820404,Auf einer CD sind der Musik oder gesprochener Text gespeichert.,gespeichert,2094.695838189125,None,2099.0961591959,None,2109.896662211418,None,None,None,02,00,English,A2,True,True,True,True,True,True,True,True,True,True,True,True,No,No,No,No,No,No,2020_Jul_02_1020,nibs_stage_1,3.2.3,59.99121794514219,
,,,,,,,,0,0,0,0,1,0,1,0,21,0,21,0,,,,,,,,,,,,,,,,,,,,,,,,,,,,,,,,,,,,,,,,,,,,,,,,,,,,,./data/Subject_02/Session_00/Exp_data/2020_Jul_02_1020/rec_QA_run_00_block_001_trial_021.wav,,,,,,,,,,,,,,,,,,,,,,,,,Listen to the question and speak out your answer!,2113.314906835556,None,2113.2934090375898,2115.3137078285217,Er sieht endlich ein Licht am Ende des Tunnels.,sieht,2114.696885085106,2117.380425930023,2117.763852095604,None,2129.8978991270064,None,None,None,02,00,English,A2,True,True,True,True,True,True,True,True,True,True,True,True,No,No,No,No,No,No,2020_Jul_02_1020,nibs_stage_1,3.2.3,59.99121794514219,
,,,,,,,,0,0,0,0,1,0,1,0,22,0,22,0,,,,,,,,,,,,,,,,,,,,,,,,,,,,,,,,,,,,,,,,,,,,,,,,,,,,,./data/Subject_02/Session_00/Exp_data/2020_Jul_02_1020/rec_QA_run_00_block_001_trial_022.wav,,,,,,,,,,,,,,,,,,,,,,,,,Listen to the question and speak out your answer!,2133.314677000046,None,2133.294307875633,2135.3147099018097,Ich fahre mit dem Zug nach London.,fahre,2134.6980781316756,2136.94811296463,2137.298117136955,None,2149.898869252205,2150.9158058166504,None,None,02,00,English,A2,True,True,True,True,True,True,True,True,True,True,True,True,No,No,No,No,No,No,2020_Jul_02_1020,nibs_stage_1,3.2.3,59.99121794514219,
