run.thisRepN,run.thisTrialN,run.thisN,run.thisIndex,artifact_trial.thisRepN,artifact_trial.thisTrialN,artifact_trial.thisN,artifact_trial.thisIndex,QA_block.thisRepN,QA_block.thisTrialN,QA_block.thisN,QA_block.thisIndex,QA_trial.thisRepN,QA_trial.thisTrialN,QA_trial.thisN,QA_trial.thisIndex,fade_in_text.text,fade_in_text.started,fade_in_text.stopped,Artifact_intro_title.started,Artifact_intro_title.stopped,Artifact_intro_text.text,Artifact_intro_text.started,Artifact_intro_text.stopped,Artifact_intro_audio.started,Artifact_intro_audio.stopped,Artifact_intro_cont.started,Artifact_intro_cont.stopped,Artifact_rec_text.text,Artifact_rec_text.started,Artifact_rec_text.stopped,Artifact_rec_beep_hint.started,Artifact_rec_beep_hint.stopped,Artifact_rec_action.started,Artifact_rec_action.stopped,Artifact_rec_beep_start.started,Artifact_rec_beep_start.stopped,Artifact_rec_recording.started,Artifact_rec_recording.stopped,Artifact_rec_beep_end.started,Artifact_rec_beep_end.stopped,Artifact_rec_break.started,Artifact_rec_break.stopped,RS_intro_title.started,RS_intro_title.stopped,RS_intro_text.text,RS_intro_text.started,RS_intro_text.stopped,RS_intro_audio.started,RS_intro_audio.stopped,RS_rec_text.text,RS_rec_text.started,RS_rec_text.stopped,Pause_cont.started,Pause_cont.stopped,QA_intro_title.started,QA_intro_title.stopped,QA_intro_text.text,QA_intro_text.started,QA_intro_text.stopped,QA_intro_audio.started,QA_intro_audio.stopped,QA_intro_cont.started,QA_intro_cont.stopped,QA_rec_text.text,QA_rec_text.started,QA_rec_text.stopped,QA_rec_beep_hint.started,QA_rec_beep_hint.stopped,QA_rec_question.sen_text,QA_rec_question.cen_text,QA_rec_question.started,QA_rec_question.stopped,QA_rec_beep_start.started,QA_rec_beep_start.stopped,QA_rec_beep_end.started,QA_rec_beep_end.stopped,QA_rec_break.started,QA_rec_break.stopped,filename,fade_out_text.text,fade_out_text.started,fade_out_text.stopped,participant,session,First language,German level,Full_screen,Instruction,Intro,Artifact,Cali_pre,Fade_in_out,Artifact_within,Resting_State,QA,Pause,Cali_post,End,Breakpoint_Cali_pre_trial,Breakpoint_Run,Breakpoint_RS_block,Breakpoint_QA_block,Breakpoint_QA_trial,Breakpoint_Cali_post_trial,date,expName,psychopyVersion,frameRate,
2,0,2,0,0,0,0,0,,,,,,,,,Please remain seated until further instruction via the earphone.,62.968127965927124,None,65.00108408927917,None,"  - Task: Artifacts collection   
  - Please follow audio instruction              
",65.00108408927917,None,64.9913932800293,None,91.36927914619446,None,,93.40246295928955,None,93.39254446029663,95.40318894386292,94.78654022216797,None,98.18671317100525,None,99.58680624961853,109.58711791038513,109.98663229942322,110.98670601844788,111.38674211502075,112.386794090271,,,,,,,,,,,,,,,,,,,,,,,,,,,,,,,,,,,,,,,,,02,00,English,A2,True,False,True,False,False,True,True,True,True,True,True,True,No,2,No,No,No,No,2020_Jul_02_1136,nibs_stage_1,3.2.3,59.98950188293884,
2,0,2,0,1,0,1,0,,,,,,,,,,,,,,,,,,,,,,114.4041600227356,None,114.39333820343018,116.40366506576538,115.78702230453491,None,119.18718428611756,None,120.58726830482483,130.58769297599792,130.98772330284118,None,132.38785600662231,133.38788294792175,,,,,,,,,,,,,,,,,,,,,,,,,,,,,,,,,,,,,,,,,02,00,English,A2,True,False,True,False,False,True,True,True,True,True,True,True,No,2,No,No,No,No,2020_Jul_02_1136,nibs_stage_1,3.2.3,59.98950188293884,
2,0,2,0,2,0,2,0,,,,,,,,,,,,,,,,,,,,,,135.42192006111145,None,135.427819442749,137.43802094459534,136.80479521751403,None,140.20497817993163,141.20571398735046,141.60573024749755,151.6060860157013,152.0062913417816,153.00582695007324,153.4064221382141,154.4062991142273,,,,,,,,,,,,,,,,,,,,,,,,,,,,,,,,,,,,,,,,,02,00,English,A2,True,False,True,False,False,True,True,True,True,True,True,True,No,2,No,No,No,No,2020_Jul_02_1136,nibs_stage_1,3.2.3,59.98950188293884,
2,0,2,0,3,0,3,0,,,,,,,,,,,,,,,,,,,,,,156.42302703857422,None,156.41284322738647,158.42312598228455,157.806525182724,None,161.20664710998534,162.20665001869202,162.60615320205687,172.60669994354248,173.00671429634093,None,174.4073350429535,175.4072699546814,,,,,,,,,,,,,,,,,,,,,,,,,,,,,,,,,,,,,,,,,02,00,English,A2,True,False,True,False,False,True,True,True,True,True,True,True,No,2,No,No,No,No,2020_Jul_02_1136,nibs_stage_1,3.2.3,59.98950188293884,
2,0,2,0,4,0,4,0,,,,,,,,,,,,,,,,,,,,,,177.440838098526,None,177.43057918548584,179.44059705734253,178.8243052482605,None,182.2244722366333,None,183.62458534240722,193.62496399879456,194.02515025138854,None,195.4251630306244,196.4252269268036,,,,,,,,,,,,,,,,,,,,,,,,,,,,,,,,,,,,,,,,,02,00,English,A2,True,False,True,False,False,True,True,True,True,True,True,True,No,2,No,No,No,No,2020_Jul_02_1136,nibs_stage_1,3.2.3,59.98950188293884,
2,0,2,0,5,0,5,0,,,,,,,,,,,,,,,,,,,,,,198.47487211227417,None,198.46509642601012,200.47535800933838,199.84208221435546,None,203.24224824905394,None,204.64227218627929,214.6427960395813,215.04285616874694,216.0427610874176,216.4427900314331,217.4429440498352,,,,,,,,,,,,,,,,,,,,,,,,,,,,,,,,,,,,,,,,,02,00,English,A2,True,False,True,False,False,True,True,True,True,True,True,True,No,2,No,No,No,No,2020_Jul_02_1136,nibs_stage_1,3.2.3,59.98950188293884,
2,0,2,0,6,0,6,0,,,,,,,,,,,,,,,,,,,,,,219.49327206611633,None,219.4661500453949,221.47641706466675,220.8600112915039,None,224.26003022193908,225.25999999046326,225.6600281715393,235.6605269908905,236.06059522628783,None,237.46053099632263,238.4607241153717,,,,,,,,,,,,,,,,,,,,,,,,,,,,,,,,,,,,,,,,,02,00,English,A2,True,False,True,False,False,True,True,True,True,True,True,True,No,2,No,No,No,No,2020_Jul_02_1136,nibs_stage_1,3.2.3,59.98950188293884,
2,0,2,0,7,0,7,0,,,,,,,,,,,,,,,,,,,,,,240.51040697097778,None,240.50066442489623,242.51091313362122,241.8775641441345,244.8777050971985,245.27778525352477,None,246.67773122787474,256.67834210395813,257.0784053325653,None,258.47856092453003,259.47844409942627,,,,,,,,,,,,,,,,,,,,,,,,,,,,,,,,,,,,,,,,,02,00,English,A2,True,False,True,False,False,True,True,True,True,True,True,True,No,2,No,No,No,No,2020_Jul_02_1136,nibs_stage_1,3.2.3,59.98950188293884,
2,0,2,0,8,0,8,0,,,,,,,,,,,,,,,,,,,,,,261.52908301353455,None,261.5016942024231,263.51167392730713,262.8953191757202,265.89541697502136,266.2955603122711,None,267.6956192970276,277.696072101593,278.09603328704833,None,279.4961459636688,280.4962511062622,,,,,,,,,,,,,,,,,,,,,,,,,,,,,,,,,,,,,,,,,02,00,English,A2,True,False,True,False,False,True,True,True,True,True,True,True,No,2,No,No,No,No,2020_Jul_02_1136,nibs_stage_1,3.2.3,59.98950188293884,
2,0,2,0,9,0,9,0,,,,,,,,,,,,,,,,,,,,,,282.5292880535126,None,282.51951642036437,284.52980494499207,283.89642734527587,286.89613914489746,287.29684920310973,288.29664397239685,288.6967451095581,298.69721007347107,299.09728212356566,300.09692907333374,300.49687004089355,301.4973349571228,,,,,,,,,,,,,,,,,,,,,,,,,,,,,,,,,,,,,,,,,02,00,English,A2,True,False,True,False,False,True,True,True,True,True,True,True,No,2,No,No,No,No,2020_Jul_02_1136,nibs_stage_1,3.2.3,59.98950188293884,
2,0,2,0,10,0,10,0,,,,,,,,,,,,,,,,,,,,,,303.5469379425049,None,303.53725237846373,305.5475389957428,304.91444725990294,None,308.314431142807,309.31443905830383,309.71437830924987,319.71491599082947,320.11498112678527,None,321.5147190093994,322.5151059627533,,,,,,,,,,,,,,,,,,,,,,,,,,,,,,,,,,,,,,,,,02,00,English,A2,True,False,True,False,False,True,True,True,True,True,True,True,No,2,No,No,No,No,2020_Jul_02_1136,nibs_stage_1,3.2.3,59.98950188293884,
2,0,2,0,11,0,11,0,,,,,,,,,,,,,,,,,,,,,,324.5646150112152,None,324.5551044464111,326.5652930736542,325.93192811012267,None,329.33188219070433,None,330.73221011161803,340.7327210903168,341.13282413482665,None,342.53223514556885,343.5328769683838,,,,,,,,,,,,,,,,,,,,,,,,,,,,,,,,,,,,,,,,,02,00,English,A2,True,False,True,False,False,True,True,True,True,True,True,True,No,2,No,No,No,No,2020_Jul_02_1136,nibs_stage_1,3.2.3,59.98950188293884,
2,0,2,0,12,0,12,0,,,,,,,,,,,,,,,,,,,,,,345.5824730396271,None,345.55611419677734,347.566468000412,346.9497441768646,349.94986391067505,350.34955615997313,None,351.7499942302704,361.7504780292511,362.15067811012267,363.15057706832886,363.5505590438843,364.5506250858307,,,,,,,,,,,,,,,,,,,,,,,,,,,,,,,,,,,,,,,,,02,00,English,A2,True,False,True,False,False,True,True,True,True,True,True,True,No,2,No,No,No,No,2020_Jul_02_1136,nibs_stage_1,3.2.3,59.98950188293884,
2,0,2,0,13,0,13,0,,,,,,,,,,,,,,,,,,,,,,366.6007080078125,None,366.57386112213135,368.5842320919037,367.96756715774535,None,371.3673352718353,372.367751121521,372.7678012371063,382.76846408843994,383.1683063030243,None,384.5683400630951,385.56836795806885,,,,,,,,,,,,,,,,,,,,,,,,,,,,,,,,,,,,,,,,,02,00,English,A2,True,False,True,False,False,True,True,True,True,True,True,True,No,2,No,No,No,No,2020_Jul_02_1136,nibs_stage_1,3.2.3,59.98950188293884,
2,0,2,0,14,0,14,0,,,,,,,,,,,,,,,,,,,,,,387.6184639930725,None,387.5916590690613,389.6019721031189,388.98531312942504,None,392.3850652694702,None,393.78489727973937,403.78534412384033,404.18559617996215,None,405.58551812171936,406.5855779647827,,,,,,,,,,,,,,,,,,,,,,,,,,,,,,,,,,,,,,,,,02,00,English,A2,True,False,True,False,False,True,True,True,True,True,True,True,No,2,No,No,No,No,2020_Jul_02_1136,nibs_stage_1,3.2.3,59.98950188293884,
2,0,2,0,,,,,0,0,0,0,0,0,0,0,,,,,,,,,,,,,,,,,,,,,,,,,,,,616.0806109905243,None," - Task: Keep seated and relaxed with either      
             opening or closing eyes                  
 - Beep sound with decreasing pitch: Block finish 
",616.0806109905243,None,616.0537113666535,None,"Please keep relaxed and open your eyes.
Note: Blinking is allowed.",639.1145031452179,819.1246750354767,822.4913239479065,None,836.6086070537567,None," - Task: Listen to the question& Speak out answer 
 - Melodious beep sound: Trial start              
 - Silent sound (blank): censored word            
 - Beep sound with increasing pitch: Rec. start   
 - Beep sound with decreasing pitch: Rec. finish  
",836.6086070537567,None,836.5846412181854,None,875.99400806427,None,Listen to the question and speak out your answer!,879.0774750709534,None,879.0539878368378,881.0612490177155,"Die Augen meines Sohnes glänzten, als er das Geschenk sah.",sah,880.4448792457581,883.9114239215851,884.3281502246857,None,895.6454562664032,None,None,None,./data/Subject_02/Session_00/Exp_data/2020_Jul_02_1136/rec_QA_run_02_block_000_trial_000.wav,,,,02,00,English,A2,True,False,True,False,False,True,True,True,True,True,True,True,No,2,No,No,No,No,2020_Jul_02_1136,nibs_stage_1,3.2.3,59.98950188293884,
2,0,2,0,,,,,0,0,0,0,1,0,1,0,,,,,,,,,,,,,,,,,,,,,,,,,,,,,,,,,,,,,,,,,,,,,,,,,Listen to the question and speak out your answer!,898.0621840953827,None,898.0520996093751,900.0622489452362,"Er probierte, die Tür mit dem falschen Schlüssel zu öffnen.",öffnen,899.445685338974,902.8618221282959,903.261811208725,None,914.6457471370697,None,None,None,./data/Subject_02/Session_00/Exp_data/2020_Jul_02_1136/rec_QA_run_02_block_000_trial_001.wav,,,,02,00,English,A2,True,False,True,False,False,True,True,True,True,True,True,True,No,2,No,No,No,No,2020_Jul_02_1136,nibs_stage_1,3.2.3,59.98950188293884,
2,0,2,0,,,,,0,0,0,0,2,0,2,0,,,,,,,,,,,,,,,,,,,,,,,,,,,,,,,,,,,,,,,,,,,,,,,,,Listen to the question and speak out your answer!,918.0460729598999,None,918.0356604576111,920.0466771125793,Die technologische Entwicklung schafft immer kleinere Computer.,schafft,919.413347196579,None,923.6135711193085,924.6131660938263,934.6141931533814,935.6141560077667,936.0143840312958,None,./data/Subject_02/Session_00/Exp_data/2020_Jul_02_1136/rec_QA_run_02_block_000_trial_002.wav,,,,02,00,English,A2,True,False,True,False,False,True,True,True,True,True,True,True,No,2,No,No,No,No,2020_Jul_02_1136,nibs_stage_1,3.2.3,59.98950188293884,
2,0,2,0,,,,,0,0,0,0,3,0,3,0,,,,,,,,,,,,,,,,,,,,,,,,,,,,,,,,,,,,,,,,,,,,,,,,,Listen to the question and speak out your answer!,938.0817670822144,None,938.054370546341,940.0643119812012,In der Vergangenheit war Berlin in zwei Hälften geteilt.,geteilt,939.4640972137452,942.7808620929718,943.1975442886353,None,954.6813902378083,955.6980409622192,None,None,./data/Subject_02/Session_00/Exp_data/2020_Jul_02_1136/rec_QA_run_02_block_000_trial_003.wav,,,,02,00,English,A2,True,False,True,False,False,True,True,True,True,True,True,True,No,2,No,No,No,No,2020_Jul_02_1136,nibs_stage_1,3.2.3,59.98950188293884,
2,0,2,0,,,,,0,0,0,0,4,0,4,0,,,,,,,,,,,,,,,,,,,,,,,,,,,,,,,,,,,,,,,,,,,,,,,,,Listen to the question and speak out your answer!,958.098827123642,None,958.071568632126,960.0981979370117,Ich bin krank und bleibe heute im Bett.,bleibe,959.4482211589814,961.8649570941925,962.2816931724549,None,974.6490342140198,975.6656270027161,None,None,./data/Subject_02/Session_00/Exp_data/2020_Jul_02_1136/rec_QA_run_02_block_000_trial_004.wav,,,,02,00,English,A2,True,False,True,False,False,True,True,True,True,True,True,True,No,2,No,No,No,No,2020_Jul_02_1136,nibs_stage_1,3.2.3,59.98950188293884,
2,0,2,0,,,,,0,0,0,0,5,0,5,0,,,,,,,,,,,,,,,,,,,,,,,,,,,,,,,,,,,,,,,,,,,,,,,,,Listen to the question and speak out your answer!,978.0992619991302,None,978.0725404262544,980.0992619991302,"Wenn wir ein Auto mieten möchten, müssen wir Führerschein vorlegen und die Kaution bezahlen.",mieten,979.4828452587128,None,985.4162573337555,986.4329209327698,994.6833962917328,995.7000889778137,None,None,./data/Subject_02/Session_00/Exp_data/2020_Jul_02_1136/rec_QA_run_02_block_000_trial_005.wav,,,,02,00,English,A2,True,False,True,False,False,True,True,True,True,True,True,True,No,2,No,No,No,No,2020_Jul_02_1136,nibs_stage_1,3.2.3,59.98950188293884,
2,0,2,0,,,,,0,0,0,0,6,0,6,0,,,,,,,,,,,,,,,,,,,,,,,,,,,,,,,,,,,,,,,,,,,,,,,,,Listen to the question and speak out your answer!,998.0674481391907,None,998.0567032814026,1000.1002929210663,"Danke für den Smoothie, den Sie mir machten.",machten,999.4503271102906,None,1002.4504742145539,1003.467227935791,1014.6511351585389,None,None,None,./data/Subject_02/Session_00/Exp_data/2020_Jul_02_1136/rec_QA_run_02_block_000_trial_006.wav,,,,02,00,English,A2,True,False,True,False,False,True,True,True,True,True,True,True,No,2,No,No,No,No,2020_Jul_02_1136,nibs_stage_1,3.2.3,59.98950188293884,
2,0,2,0,,,,,0,0,0,0,7,0,7,0,,,,,,,,,,,,,,,,,,,,,,,,,,,,,,,,,,,,,,,,,,,,,,,,,Listen to the question and speak out your answer!,1018.1012699604034,None,1018.0744635105134,1020.1012771129608,Der ganze Kursus besichtigte die Ausstellung.,besichtigte,1019.4513821125031,1022.3014669418335,1022.7182211399079,None,1034.6522173404694,None,None,None,./data/Subject_02/Session_00/Exp_data/2020_Jul_02_1136/rec_QA_run_02_block_000_trial_007.wav,,,,02,00,English,A2,True,False,True,False,False,True,True,True,True,True,True,True,No,2,No,No,No,No,2020_Jul_02_1136,nibs_stage_1,3.2.3,59.98950188293884,
2,0,2,0,,,,,0,0,0,0,8,0,8,0,,,,,,,,,,,,,,,,,,,,,,,,,,,,,,,,,,,,,,,,,,,,,,,,,Listen to the question and speak out your answer!,1038.1023170948029,None,1038.0756694316865,1040.1024250984192,"In der Therapie lernte er, mit Angst und Stress umzugehen.",umzugehen,1039.485769224167,None,1043.3526441574097,1044.3693149089813,1054.6865741729737,1055.7032759189606,None,None,./data/Subject_02/Session_00/Exp_data/2020_Jul_02_1136/rec_QA_run_02_block_000_trial_008.wav,,,,02,00,English,A2,True,False,True,False,False,True,True,True,True,True,True,True,No,2,No,No,No,No,2020_Jul_02_1136,nibs_stage_1,3.2.3,59.98950188293884,
2,0,2,0,,,,,0,0,0,0,9,0,9,0,,,,,,,,,,,,,,,,,,,,,,,,,,,,,,,,,,,,,,,,,,,,,,,,,Listen to the question and speak out your answer!,1058.0709130764008,None,1058.059867334366,1060.1034860610962,Sonja nimmt ihren Tee mit Milch und Zucker.,nimmt,1059.4534952163697,None,1062.587003183365,None,1074.6543421268464,1075.6711919307709,None,None,./data/Subject_02/Session_00/Exp_data/2020_Jul_02_1136/rec_QA_run_02_block_000_trial_009.wav,,,,02,00,English,A2,True,False,True,False,False,True,True,True,True,True,True,True,No,2,No,No,No,No,2020_Jul_02_1136,nibs_stage_1,3.2.3,59.98950188293884,
2,0,2,0,,,,,0,0,0,0,10,0,10,0,,,,,,,,,,,,,,,,,,,,,,,,,,,,,,,,,,,,,,,,,,,,,,,,,Listen to the question and speak out your answer!,1078.1053199768066,None,1078.077649497986,1080.1045339107513,"Das Flugzeug steht kurz vor dem Abflug, wir müssen uns beeilen.",beeilen,1079.4878983020783,None,1083.7881061553956,1084.8049321174622,1094.6886991977692,None,None,None,./data/Subject_02/Session_00/Exp_data/2020_Jul_02_1136/rec_QA_run_02_block_000_trial_010.wav,,,,02,00,English,A2,True,False,True,False,False,True,True,True,True,True,True,True,No,2,No,No,No,No,2020_Jul_02_1136,nibs_stage_1,3.2.3,59.98950188293884,
2,0,2,0,,,,,0,0,0,0,11,0,11,0,,,,,,,,,,,,,,,,,,,,,,,,,,,,,,,,,,,,,,,,,,,,,,,,,Listen to the question and speak out your answer!,1098.106346130371,None,1098.0787304878236,1100.1055691242218,"Nachdem er nach dem Flugzeugunglück gerettet wurde, hat er an Gott geglaubt.",geglaubt,1099.4892112731934,1103.939357995987,1104.3225233078003,None,1114.6730651378632,1115.6899719238281,None,None,./data/Subject_02/Session_00/Exp_data/2020_Jul_02_1136/rec_QA_run_02_block_000_trial_011.wav,,,,02,00,English,A2,True,False,True,False,False,True,True,True,True,True,True,True,No,2,No,No,No,No,2020_Jul_02_1136,nibs_stage_1,3.2.3,59.98950188293884,
2,0,2,0,,,,,0,0,0,0,12,0,12,0,,,,,,,,,,,,,,,,,,,,,,,,,,,,,,,,,,,,,,,,,,,,,,,,,Listen to the question and speak out your answer!,1118.0899181365967,None,1118.0630556583405,1120.09046292305,"Die U-Bahn ist gerade kaputt, also muss ich aussteigen. ",aussteigen,1119.4733392715455,1122.8570249080658,1123.2404262542725,None,1134.6742152690888,None,None,None,./data/Subject_02/Session_00/Exp_data/2020_Jul_02_1136/rec_QA_run_02_block_000_trial_012.wav,,,,02,00,English,A2,True,False,True,False,False,True,True,True,True,True,True,True,No,2,No,No,No,No,2020_Jul_02_1136,nibs_stage_1,3.2.3,59.98950188293884,
2,0,2,0,,,,,0,0,0,0,13,0,13,0,,,,,,,,,,,,,,,,,,,,,,,,,,,,,,,,,,,,,,,,,,,,,,,,,Listen to the question and speak out your answer!,1138.0910320281982,None,1138.0641476154328,1140.0910251140594,Zum Geburtstag hat ihm Oma ein Buch mit vielen Bildern geschenkt.,geschenkt,1139.4413082122803,1143.257966041565,1143.6412791728974,None,1154.6418542385102,None,None,None,./data/Subject_02/Session_00/Exp_data/2020_Jul_02_1136/rec_QA_run_02_block_000_trial_013.wav,,,,02,00,English,A2,True,False,True,False,False,True,True,True,True,True,True,True,No,2,No,No,No,No,2020_Jul_02_1136,nibs_stage_1,3.2.3,59.98950188293884,
2,0,2,0,,,,,0,0,0,0,14,0,14,0,,,,,,,,,,,,,,,,,,,,,,,,,,,,,,,,,,,,,,,,,,,,,,,,,Listen to the question and speak out your answer!,1158.0595970153809,None,1158.048474264145,1160.0922191143036,Auf Lavaerde wachsen sehr gute Weintrauben.,wachsen,1159.442036342621,None,1162.9756192684174,1163.9923980236053,1174.6429183006287,None,None,None,./data/Subject_02/Session_00/Exp_data/2020_Jul_02_1136/rec_QA_run_02_block_000_trial_014.wav,,,,02,00,English,A2,True,False,True,False,False,True,True,True,True,True,True,True,No,2,No,No,No,No,2020_Jul_02_1136,nibs_stage_1,3.2.3,59.98950188293884,
2,0,2,0,,,,,0,0,0,0,15,0,15,0,,,,,,,,,,,,,,,,,,,,,,,,,,,,,,,,,,,,,,,,,,,,,,,,,Listen to the question and speak out your answer!,1178.0937061309814,None,1178.0662516593934,1180.0933179855347,Das Zimmer kostet ein Hundert Euro pro Nacht.,kostet,1179.4765913009644,None,1182.7100362300873,None,1194.677301120758,None,None,None,./data/Subject_02/Session_00/Exp_data/2020_Jul_02_1136/rec_QA_run_02_block_000_trial_015.wav,,,,02,00,English,A2,True,False,True,False,False,True,True,True,True,True,True,True,No,2,No,No,No,No,2020_Jul_02_1136,nibs_stage_1,3.2.3,59.98950188293884,
2,0,2,0,,,,,0,0,0,0,16,0,16,0,,,,,,,,,,,,,,,,,,,,,,,,,,,,,,,,,,,,,,,,,,,,,,,,,Listen to the question and speak out your answer!,1198.0949850082397,None,1198.06739153862,1200.0941090583801,Sam glaubt an eine marxistische Weltanschauung.,glaubt,1199.4777931690217,1202.3945479393005,1202.777725172043,None,1214.6783611297608,1215.6951251029968,None,None,./data/Subject_02/Session_00/Exp_data/2020_Jul_02_1136/rec_QA_run_02_block_000_trial_016.wav,,,,02,00,English,A2,True,False,True,False,False,True,True,True,True,True,True,True,No,2,No,No,No,No,2020_Jul_02_1136,nibs_stage_1,3.2.3,59.98950188293884,
2,0,2,0,,,,,0,0,0,0,17,0,17,0,,,,,,,,,,,,,,,,,,,,,,,,,,,,,,,,,,,,,,,,,,,,,,,,,Listen to the question and speak out your answer!,1218.096451997757,None,1218.0686205863954,1220.0953500270844,"Wie lange benötigt die Erde, um die Sonne zu umrunden?",benötigt,1219.4785992622376,1223.0287461280823,1223.4121601104737,None,1234.6793982505799,None,None,None,./data/Subject_02/Session_00/Exp_data/2020_Jul_02_1136/rec_QA_run_02_block_000_trial_017.wav,,,,02,00,English,A2,True,False,True,False,False,True,True,True,True,True,True,True,No,2,No,No,No,No,2020_Jul_02_1136,nibs_stage_1,3.2.3,59.98950188293884,
2,0,2,0,,,,,0,0,0,0,18,0,18,0,,,,,,,,,,,,,,,,,,,,,,,,,,,,,,,,,,,,,,,,,,,,,,,,,Listen to the question and speak out your answer!,1238.0795290470123,None,1238.0526804447175,1240.0796399116516,Die Präsentation dauert eine halbe Stunde.,dauert,1239.4300322055817,1242.2131221294403,1242.5963971138,None,1254.630721282959,None,None,None,./data/Subject_02/Session_00/Exp_data/2020_Jul_02_1136/rec_QA_run_02_block_000_trial_018.wav,,,,02,00,English,A2,True,False,True,False,False,True,True,True,True,True,True,True,No,2,No,No,No,No,2020_Jul_02_1136,nibs_stage_1,3.2.3,59.98950188293884,
2,0,2,0,,,,,0,0,0,0,19,0,19,0,,,,,,,,,,,,,,,,,,,,,,,,,,,,,,,,,,,,,,,,,,,,,,,,,Listen to the question and speak out your answer!,1258.0807139873505,None,1258.05380358696,1260.0808079242706,Peter interessiert sich sehr für Geschichte.,interessiert,1259.4641241550446,None,1262.5641571998597,None,1274.664928150177,1275.681783914566,None,None,./data/Subject_02/Session_00/Exp_data/2020_Jul_02_1136/rec_QA_run_02_block_000_trial_019.wav,,,,02,00,English,A2,True,False,True,False,False,True,True,True,True,True,True,True,No,2,No,No,No,No,2020_Jul_02_1136,nibs_stage_1,3.2.3,59.98950188293884,
2,0,2,0,,,,,0,0,0,0,20,0,20,0,,,,,,,,,,,,,,,,,,,,,,,,,,,,,,,,,,,,,,,,,,,,,,,,,Listen to the question and speak out your answer!,1278.0656371116638,None,1278.0381252288819,1280.0650939941406,Rom wurde nicht an einem Tag erbaut.,erbaut,1279.4151131629944,None,1282.1485902786255,None,1294.6158082008362,None,1296.0326149463654,None,./data/Subject_02/Session_00/Exp_data/2020_Jul_02_1136/rec_QA_run_02_block_000_trial_020.wav,,,,02,00,English,A2,True,False,True,False,False,True,True,True,True,True,True,True,No,2,No,No,No,No,2020_Jul_02_1136,nibs_stage_1,3.2.3,59.98950188293884,
2,0,2,0,,,,,0,0,0,0,21,0,21,0,,,,,,,,,,,,,,,,,,,,,,,,,,,,,,,,,,,,,,,,,,,,,,,,,Listen to the question and speak out your answer!,1298.083251953125,None,1298.0558802604676,1300.082806110382,Er verwendet einen Bleistift auf der Wand zu malen.,malen,1299.4327492237092,1302.4495100975037,1302.8663432121277,None,1314.6336271286011,None,None,None,./data/Subject_02/Session_00/Exp_data/2020_Jul_02_1136/rec_QA_run_02_block_000_trial_021.wav,,,,02,00,English,A2,True,False,True,False,False,True,True,True,True,True,True,True,No,2,No,No,No,No,2020_Jul_02_1136,nibs_stage_1,3.2.3,59.98950188293884,
2,0,2,0,,,,,0,0,0,0,22,0,22,0,,,,,,,,,,,,,,,,,,,,,,,,,,,,,,,,,,,,,,,,,,,,,,,,,Listen to the question and speak out your answer!,1318.0681450366974,None,1318.040321302414,1320.0674591064453,"Sie war zu stolz, um ihn um Hilfe zu bitten.",bitten,1319.4171461582184,None,1322.7174171924592,1323.7340409755707,1334.6182302951813,None,1336.0346870422363,None,./data/Subject_02/Session_00/Exp_data/2020_Jul_02_1136/rec_QA_run_02_block_000_trial_022.wav,,,,02,00,English,A2,True,False,True,False,False,True,True,True,True,True,True,True,No,2,No,No,No,No,2020_Jul_02_1136,nibs_stage_1,3.2.3,59.98950188293884,
2,0,2,0,,,,,0,0,0,0,23,0,23,0,,,,,,,,,,,,,,,,,,,,,,,,,,,,,,,,,,,,,,,,,,,,,,,,,Listen to the question and speak out your answer!,1338.0861430168152,None,1338.0579523563385,1340.0849030017853,Wie hoch kosten der Wahren ？,kosten,1339.4685112953186,1341.2851829528809,1341.6683961868287,1342.685054063797,1354.6694261550904,None,None,None,./data/Subject_02/Session_00/Exp_data/2020_Jul_02_1136/rec_QA_run_02_block_000_trial_023.wav,,,,02,00,English,A2,True,False,True,False,False,True,True,True,True,True,True,True,No,2,No,No,No,No,2020_Jul_02_1136,nibs_stage_1,3.2.3,59.98950188293884,
2,0,2,0,,,,,0,0,0,0,24,0,24,0,,,,,,,,,,,,,,,,,,,,,,,,,,,,,,,,,,,,,,,,,,,,,,,,,Listen to the question and speak out your answer!,1358.0870161056519,None,1358.0591086387635,1360.0859711170197,"Wenn Sie mit dem Vertrag nicht zufrieden sind, können Sie ihn vor seinem Ablauf kündigen.",kündigen,1359.4696392536164,1364.2206361293793,1364.6029293060303,1365.6196870803833,1374.6701073169709,1375.6867771148682,None,None,./data/Subject_02/Session_00/Exp_data/2020_Jul_02_1136/rec_QA_run_02_block_000_trial_024.wav,,,,02,00,English,A2,True,False,True,False,False,True,True,True,True,True,True,True,No,2,No,No,No,No,2020_Jul_02_1136,nibs_stage_1,3.2.3,59.98950188293884,
2,0,2,0,,,,,0,0,0,0,,,,,,,,,,,,,,,,,,,,,,,,,,,,,,,,,,,,,,,,,,1379.0705671310425,None,,,,,,,,,,,,,,,,,,,,,,,,,,,,,02,00,English,A2,True,False,True,False,False,True,True,True,True,True,True,True,No,2,No,No,No,No,2020_Jul_02_1136,nibs_stage_1,3.2.3,59.98950188293884,
2,0,2,0,,,,,1,0,1,0,0,0,0,0,,,,,,,,,,,,,,,,,,,,,,,,,,,,,,,,,,,,,,,,,,,,,,,,,Listen to the question and speak out your answer!,1400.05499792099,None,1400.0312515735627,1402.0552561283112,Sarah badet lieber abends in der Wanne.,badet,1401.4382023334504,None,1404.271789264679,None,1416.6389791488648,None,None,None,./data/Subject_02/Session_00/Exp_data/2020_Jul_02_1136/rec_QA_run_02_block_001_trial_000.wav,,,,02,00,English,A2,True,False,True,False,False,True,True,True,True,True,True,True,No,2,No,No,No,No,2020_Jul_02_1136,nibs_stage_1,3.2.3,59.98950188293884,
2,0,2,0,,,,,1,0,1,0,1,0,1,0,,,,,,,,,,,,,,,,,,,,,,,,,,,,,,,,,,,,,,,,,,,,,,,,,Listen to the question and speak out your answer!,1420.0730440616608,None,1420.0456254005433,1422.0725610256195,"Leichte Sprache ist eine Hilfe für Menschen , die keine schwierige Sprache verstehen.",verstehen,1421.4226853370667,None,1426.856218290329,None,1436.6234173297883,None,None,None,./data/Subject_02/Session_00/Exp_data/2020_Jul_02_1136/rec_QA_run_02_block_001_trial_001.wav,,,,02,00,English,A2,True,False,True,False,False,True,True,True,True,True,True,True,No,2,No,No,No,No,2020_Jul_02_1136,nibs_stage_1,3.2.3,59.98950188293884,
2,0,2,0,,,,,1,0,1,0,2,0,2,0,,,,,,,,,,,,,,,,,,,,,,,,,,,,,,,,,,,,,,,,,,,,,,,,,Listen to the question and speak out your answer!,1440.0736200809479,None,1440.046821498871,1442.0736911296844,Wir schneiden den Apfel in zwei Hälften. ,schneiden,1441.423687171936,None,1444.5572022914887,1445.5739750862122,1456.6244751930237,None,None,None,./data/Subject_02/Session_00/Exp_data/2020_Jul_02_1136/rec_QA_run_02_block_001_trial_002.wav,,,,02,00,English,A2,True,False,True,False,False,True,True,True,True,True,True,True,No,2,No,No,No,No,2020_Jul_02_1136,nibs_stage_1,3.2.3,59.98950188293884,
2,0,2,0,,,,,1,0,1,0,3,0,3,0,,,,,,,,,,,,,,,,,,,,,,,,,,,,,,,,,,,,,,,,,,,,,,,,,Listen to the question and speak out your answer!,1460.0755031108856,None,1460.0478664875031,1462.0746901035309,"Wir sind stolz auf das, was wir bis jetzt geschafft haben.",geschafft,1461.4580921649933,1464.8084309101105,1465.1915721416474,1466.208228111267,1476.6588053226471,None,None,None,./data/Subject_02/Session_00/Exp_data/2020_Jul_02_1136/rec_QA_run_02_block_001_trial_003.wav,,,,02,00,English,A2,True,False,True,False,False,True,True,True,True,True,True,True,No,2,No,No,No,No,2020_Jul_02_1136,nibs_stage_1,3.2.3,59.98950188293884,
2,0,2,0,,,,,1,0,1,0,4,0,4,0,,,,,,,,,,,,,,,,,,,,,,,,,,,,,,,,,,,,,,,,,,,,,,,,,Listen to the question and speak out your answer!,1480.0595180988312,None,1480.032368373871,1482.0593569278717,An seinem Mantel fehlt ein Knopf.,fehlt,1481.409183216095,None,1483.942547273636,None,1496.626569223404,None,None,None,./data/Subject_02/Session_00/Exp_data/2020_Jul_02_1136/rec_QA_run_02_block_001_trial_004.wav,,,,02,00,English,A2,True,False,True,False,False,True,True,True,True,True,True,True,No,2,No,No,No,No,2020_Jul_02_1136,nibs_stage_1,3.2.3,59.98950188293884,
2,0,2,0,,,,,1,0,1,0,5,0,5,0,,,,,,,,,,,,,,,,,,,,,,,,,,,,,,,,,,,,,,,,,,,,,,,,,Listen to the question and speak out your answer!,1500.0775759220123,None,1500.0499886512757,1502.0770070552826,"Da ich gestern Abend übergewichtig war, werde ich morgen eine neue Diät beginnen.",beginnen,1501.4602291107178,1506.2104301452637,1506.5936631679535,1507.6104190349579,1516.6611351490021,1517.6776099205017,None,None,./data/Subject_02/Session_00/Exp_data/2020_Jul_02_1136/rec_QA_run_02_block_001_trial_005.wav,,,,02,00,English,A2,True,False,True,False,False,True,True,True,True,True,True,True,No,2,No,No,No,No,2020_Jul_02_1136,nibs_stage_1,3.2.3,59.98950188293884,
2,0,2,0,,,,,1,0,1,0,6,0,6,0,,,,,,,,,,,,,,,,,,,,,,,,,,,,,,,,,,,,,,,,,,,,,,,,,Listen to the question and speak out your answer!,1520.0784730911255,None,1520.050857448578,1522.0778379440308,Wir haben im Wald Beeren und Pilze gesammelt.,gesammelt,1521.4611103057862,None,1524.6280321598053,None,1536.6620172977448,None,None,None,./data/Subject_02/Session_00/Exp_data/2020_Jul_02_1136/rec_QA_run_02_block_001_trial_006.wav,,,,02,00,English,A2,True,False,True,False,False,True,True,True,True,True,True,True,No,2,No,No,No,No,2020_Jul_02_1136,nibs_stage_1,3.2.3,59.98950188293884,
2,0,2,0,,,,,1,0,1,0,7,0,7,0,,,,,,,,,,,,,,,,,,,,,,,,,,,,,,,,,,,,,,,,,,,,,,,,,Listen to the question and speak out your answer!,1540.062693119049,None,1540.0353064060212,1542.0622630119324,"Er bevorzugt die Farben gelb, orange und rot.",bevorzugt,1541.4122452259064,1544.5290291309357,1544.912423324585,None,1556.6130561351777,None,None,None,./data/Subject_02/Session_00/Exp_data/2020_Jul_02_1136/rec_QA_run_02_block_001_trial_007.wav,,,,02,00,English,A2,True,False,True,False,False,True,True,True,True,True,True,True,No,2,No,No,No,No,2020_Jul_02_1136,nibs_stage_1,3.2.3,59.98950188293884,
2,0,2,0,,,,,1,0,1,0,8,0,8,0,,,,,,,,,,,,,,,,,,,,,,,,,,,,,,,,,,,,,,,,,,,,,,,,,Listen to the question and speak out your answer!,1560.047063112259,None,1560.0196532726288,1562.0465440750122,"Wenn der Wind stark bläst, ziehen die Wolken schnell über den Himmel.",bläst,1561.3965801715851,1564.9134149551392,1565.2968313217164,1566.313511133194,1576.5974542617798,None,1578.014032125473,None,./data/Subject_02/Session_00/Exp_data/2020_Jul_02_1136/rec_QA_run_02_block_001_trial_008.wav,,,,02,00,English,A2,True,False,True,False,False,True,True,True,True,True,True,True,No,2,No,No,No,No,2020_Jul_02_1136,nibs_stage_1,3.2.3,59.98950188293884,
2,0,2,0,,,,,1,0,1,0,9,0,9,0,,,,,,,,,,,,,,,,,,,,,,,,,,,,,,,,,,,,,,,,,,,,,,,,,Listen to the question and speak out your answer!,1580.0643169879913,None,1580.0372974395752,1582.0643289089203,Bienen liefern Honig.,liefern,1581.4144403457642,None,1583.4477931976319,None,1596.6153962135315,1597.6319510936737,None,None,./data/Subject_02/Session_00/Exp_data/2020_Jul_02_1136/rec_QA_run_02_block_001_trial_009.wav,,,,02,00,English,A2,True,False,True,False,False,True,True,True,True,True,True,True,No,2,No,No,No,No,2020_Jul_02_1136,nibs_stage_1,3.2.3,59.98950188293884,
2,0,2,0,,,,,1,0,1,0,10,0,10,0,,,,,,,,,,,,,,,,,,,,,,,,,,,,,,,,,,,,,,,,,,,,,,,,,Listen to the question and speak out your answer!,1600.0497760772705,None,1600.0217022418976,1602.0487339496613,Im Herbst werden die Blätter von den Bäumen fallen.,fallen,1601.398753118515,1604.215590953827,1604.5988993167878,None,1616.5995382785798,1617.616294145584,1618.0162839889526,None,./data/Subject_02/Session_00/Exp_data/2020_Jul_02_1136/rec_QA_run_02_block_001_trial_010.wav,,,,02,00,English,A2,True,False,True,False,False,True,True,True,True,True,True,True,No,2,No,No,No,No,2020_Jul_02_1136,nibs_stage_1,3.2.3,59.98950188293884,
2,0,2,0,,,,,1,0,1,0,11,0,11,0,,,,,,,,,,,,,,,,,,,,,,,,,,,,,,,,,,,,,,,,,,,,,,,,,Listen to the question and speak out your answer!,1620.067214012146,None,1620.0395493030549,1622.0664410591125,"Nachdem ich nicht da war, kann ich nichts dazu sagen.",sagen,1621.4164251804352,None,1624.8499631404877,1625.8667120933533,1636.6172711372376,None,None,None,./data/Subject_02/Session_00/Exp_data/2020_Jul_02_1136/rec_QA_run_02_block_001_trial_011.wav,,,,02,00,English,A2,True,False,True,False,False,True,True,True,True,True,True,True,No,2,No,No,No,No,2020_Jul_02_1136,nibs_stage_1,3.2.3,59.98950188293884,
2,0,2,0,,,,,1,0,1,0,12,0,12,0,,,,,,,,,,,,,,,,,,,,,,,,,,,,,,,,,,,,,,,,,,,,,,,,,Listen to the question and speak out your answer!,1640.068344116211,None,1640.0406044960023,1642.0674901008606,Im gleichen Jahr hat der amerikanische Bürgerkrieg begonnen.,begonnen,1641.4508473396302,None,1645.3177241802216,None,1656.651639175415,None,None,None,./data/Subject_02/Session_00/Exp_data/2020_Jul_02_1136/rec_QA_run_02_block_001_trial_012.wav,,,,02,00,English,A2,True,False,True,False,False,True,True,True,True,True,True,True,No,2,No,No,No,No,2020_Jul_02_1136,nibs_stage_1,3.2.3,59.98950188293884,
2,0,2,0,,,,,1,0,1,0,13,0,13,0,,,,,,,,,,,,,,,,,,,,,,,,,,,,,,,,,,,,,,,,,,,,,,,,,Listen to the question and speak out your answer!,1660.0694739818573,None,1660.0415655612946,1662.068552017212,Die Touristen besichtigten alle Sehenswürdigkeiten der Stadt.,besichtigten,1661.452013206482,1665.2020380496979,1665.5854491710663,None,1676.6527261257172,1677.6694259643555,None,None,./data/Subject_02/Session_00/Exp_data/2020_Jul_02_1136/rec_QA_run_02_block_001_trial_013.wav,,,,02,00,English,A2,True,False,True,False,False,True,True,True,True,True,True,True,No,2,No,No,No,No,2020_Jul_02_1136,nibs_stage_1,3.2.3,59.98950188293884,
2,0,2,0,,,,,1,0,1,0,14,0,14,0,,,,,,,,,,,,,,,,,,,,,,,,,,,,,,,,,,,,,,,,,,,,,,,,,Listen to the question and speak out your answer!,1680.0705890655518,None,1680.0429846286775,1682.069591999054,Morgen ändert sich das Wetter ganz bestimmt.,bestimmt,1681.4529611587525,1683.9030299186707,1684.2864162445069,None,1696.6538171291352,None,None,None,./data/Subject_02/Session_00/Exp_data/2020_Jul_02_1136/rec_QA_run_02_block_001_trial_014.wav,,,,02,00,English,A2,True,False,True,False,False,True,True,True,True,True,True,True,No,2,No,No,No,No,2020_Jul_02_1136,nibs_stage_1,3.2.3,59.98950188293884,
2,0,2,0,,,,,1,0,1,0,15,0,15,0,,,,,,,,,,,,,,,,,,,,,,,,,,,,,,,,,,,,,,,,,,,,,,,,,Listen to the question and speak out your answer!,1700.0874271392822,None,1700.0604988098146,1702.0873260498047,"Der Arzt sagt, mein Knie ist in Ordnung, aber meine Beine scheinen gebrochen zu sein.",scheinen,1701.4382242679596,None,1707.104307126999,1708.1209819316864,1716.6382033348084,None,None,None,./data/Subject_02/Session_00/Exp_data/2020_Jul_02_1136/rec_QA_run_02_block_001_trial_015.wav,,,,02,00,English,A2,True,False,True,False,False,True,True,True,True,True,True,True,No,2,No,No,No,No,2020_Jul_02_1136,nibs_stage_1,3.2.3,59.98950188293884,
2,0,2,0,,,,,1,0,1,0,16,0,16,0,,,,,,,,,,,,,,,,,,,,,,,,,,,,,,,,,,,,,,,,,,,,,,,,,Listen to the question and speak out your answer!,1720.0883679389954,None,1720.0615755558015,1722.0885980129242,Ich bekomme ein Gehalt und Nebenleistungen.,bekomme,1721.4717261314393,None,1724.5052551746369,None,1736.6392621517182,1737.6558611392975,None,None,./data/Subject_02/Session_00/Exp_data/2020_Jul_02_1136/rec_QA_run_02_block_001_trial_016.wav,,,,02,00,English,A2,True,False,True,False,False,True,True,True,True,True,True,True,No,2,No,No,No,No,2020_Jul_02_1136,nibs_stage_1,3.2.3,59.98950188293884,
2,0,2,0,,,,,1,0,1,0,17,0,17,0,,,,,,,,,,,,,,,,,,,,,,,,,,,,,,,,,,,,,,,,,,,,,,,,,Listen to the question and speak out your answer!,1740.089879989624,None,1740.0625225543977,1742.0896599292755,Vater trägt den großen Rucksack auf dem Rücken.,trägt,1741.4394161224366,None,1744.8062932014466,None,1756.640319299698,None,None,None,./data/Subject_02/Session_00/Exp_data/2020_Jul_02_1136/rec_QA_run_02_block_001_trial_017.wav,,,,02,00,English,A2,True,False,True,False,False,True,True,True,True,True,True,True,No,2,No,No,No,No,2020_Jul_02_1136,nibs_stage_1,3.2.3,59.98950188293884,
2,0,2,0,,,,,1,0,1,0,18,0,18,0,,,,,,,,,,,,,,,,,,,,,,,,,,,,,,,,,,,,,,,,,,,,,,,,,Listen to the question and speak out your answer!,1760.0743420124054,None,1760.046980714798,1762.0738151073456,Brot kann man in der Bäckerei kaufen.,kaufen,1761.4238352298737,None,1763.9906332015992,None,1776.6246151447297,None,None,None,./data/Subject_02/Session_00/Exp_data/2020_Jul_02_1136/rec_QA_run_02_block_001_trial_018.wav,,,,02,00,English,A2,True,False,True,False,False,True,True,True,True,True,True,True,No,2,No,No,No,No,2020_Jul_02_1136,nibs_stage_1,3.2.3,59.98950188293884,
2,0,2,0,,,,,1,0,1,0,19,0,19,0,,,,,,,,,,,,,,,,,,,,,,,,,,,,,,,,,,,,,,,,,,,,,,,,,Listen to the question and speak out your answer!,1780.0586631298065,None,1780.0313174247742,1782.058531999588,"Das verstehe ich nicht, was meinst du damit?",meinst,1781.4082343101502,None,1784.508473110199,None,1796.6090683460236,1797.625566959381,None,None,./data/Subject_02/Session_00/Exp_data/2020_Jul_02_1136/rec_QA_run_02_block_001_trial_019.wav,,,,02,00,English,A2,True,False,True,False,False,True,True,True,True,True,True,True,No,2,No,No,No,No,2020_Jul_02_1136,nibs_stage_1,3.2.3,59.98950188293884,
2,0,2,0,,,,,1,0,1,0,20,0,20,0,,,,,,,,,,,,,,,,,,,,,,,,,,,,,,,,,,,,,,,,,,,,,,,,,Listen to the question and speak out your answer!,1800.0431089401245,None,1800.0156373500824,1802.0424919128418,"Ich komme, soweit es meine Zeit erlaubt.",erlaubt,1801.3926312446595,1803.9759249687195,1804.3926653385163,1805.4094281196594,1816.6099781513215,None,None,None,./data/Subject_02/Session_00/Exp_data/2020_Jul_02_1136/rec_QA_run_02_block_001_trial_020.wav,,,,02,00,English,A2,True,False,True,False,False,True,True,True,True,True,True,True,No,2,No,No,No,No,2020_Jul_02_1136,nibs_stage_1,3.2.3,59.98950188293884,
2,0,2,0,,,,,1,0,1,0,21,0,21,0,,,,,,,,,,,,,,,,,,,,,,,,,,,,,,,,,,,,,,,,,,,,,,,,,Listen to the question and speak out your answer!,1820.060779094696,None,1820.0333994865418,1822.060429096222,Morgen machen wir einen Ausflug in den Schönbrunner Tiergarten.,machen,1821.4104241847992,None,1825.477199268341,None,1836.6114003181458,None,None,None,./data/Subject_02/Session_00/Exp_data/2020_Jul_02_1136/rec_QA_run_02_block_001_trial_021.wav,,,,02,00,English,A2,True,False,True,False,False,True,True,True,True,True,True,True,No,2,No,No,No,No,2020_Jul_02_1136,nibs_stage_1,3.2.3,59.98950188293884,
2,0,2,0,,,,,1,0,1,0,22,0,22,0,,,,,,,,,,,,,,,,,,,,,,,,,,,,,,,,,,,,,,,,,,,,,,,,,Listen to the question and speak out your answer!,1840.0618929862976,None,1840.0345584392549,1842.0613470077515,Wollen wir morgen zu Hause bleiben oder uns einen Film im Kino ansehen?,ansehen,1841.4449281215668,1845.762237071991,1846.1449422359467,None,1856.6455041885376,None,None,None,./data/Subject_02/Session_00/Exp_data/2020_Jul_02_1136/rec_QA_run_02_block_001_trial_022.wav,,,,02,00,English,A2,True,False,True,False,False,True,True,True,True,True,True,True,No,2,No,No,No,No,2020_Jul_02_1136,nibs_stage_1,3.2.3,59.98950188293884,
2,0,2,0,,,,,1,0,1,0,23,0,23,0,,,,,,,,,,,,,,,,,,,,,,,,,,,,,,,,,,,,,,,,,,,,,,,,,Listen to the question and speak out your answer!,1860.046308040619,None,1860.018959236145,1862.0458629131317,Aus Fehlern kann man lernen.,lernen,1861.3957352161408,1863.1460390090942,1863.529094171524,1864.54589509964,1876.5965702056885,1877.6132099628448,1878.013829946518,None,./data/Subject_02/Session_00/Exp_data/2020_Jul_02_1136/rec_QA_run_02_block_001_trial_023.wav,,,,02,00,English,A2,True,False,True,False,False,True,True,True,True,True,True,True,No,2,No,No,No,No,2020_Jul_02_1136,nibs_stage_1,3.2.3,59.98950188293884,
2,0,2,0,,,,,1,0,1,0,24,0,24,0,,,,,,,,,,,,,,,,,,,,,,,,,,,,,,,,,,,,,,,,,,,,,,,,,Listen to the question and speak out your answer!,1880.0646431446075,None,1880.0370952606202,1882.0637230873108,Manche Menschen kann mehr Fleisch als Gemüse essen.,essen,1881.4469711303711,1884.4635701179504,1884.8470241546631,1885.8636960983276,1896.647594165802,None,None,None,./data/Subject_02/Session_00/Exp_data/2020_Jul_02_1136/rec_QA_run_02_block_001_trial_024.wav,,,,02,00,English,A2,True,False,True,False,False,True,True,True,True,True,True,True,No,2,No,No,No,No,2020_Jul_02_1136,nibs_stage_1,3.2.3,59.98950188293884,
2,0,2,0,,,,,1,0,1,0,,,,,,,,,,,,,,,,,,,,,,,,,,,,,,,,,,,,,,,,,,1901.0645530223846,None,,,,,,,,,,,,,,,,,,,,,,,,,,,,,02,00,English,A2,True,False,True,False,False,True,True,True,True,True,True,True,No,2,No,No,No,No,2020_Jul_02_1136,nibs_stage_1,3.2.3,59.98950188293884,
2,0,2,0,,,,,,,,,,,,,,,,,,,,,,,,,,,,,,,,,,,,,,,,,,,,,,,,,,,,,,,,,,,,,,,,,,,,,,,,,,,,,Please remain seated until further instruction via the earphone.,62.968127965927124,None,02,00,English,A2,True,False,True,False,False,True,True,True,True,True,True,True,No,2,No,No,No,No,2020_Jul_02_1136,nibs_stage_1,3.2.3,59.98950188293884,
,,,,,,,,,,,,,,,,Please remain seated until further instruction via the earphone.,1949.1169800758362,None,,,,,,,,,,,,,,,,,,,,,,,,,,,,,,,,,,,,,,,,,,,,,,,,,,,,,,,,,,,,,,,,,,,,,,,,,,,,,,,,,,,,,,,,,,,
