run.thisRepN,run.thisTrialN,run.thisN,run.thisIndex,QA_block.thisRepN,QA_block.thisTrialN,QA_block.thisN,QA_block.thisIndex,QA_trial.thisRepN,QA_trial.thisTrialN,QA_trial.thisN,QA_trial.thisIndex,fade_in_text.text,fade_in_text.started,fade_in_text.stopped,RS_intro_title.started,RS_intro_title.stopped,RS_intro_text.text,RS_intro_text.started,RS_intro_text.stopped,RS_intro_audio.started,RS_intro_audio.stopped,RS_rec_text.text,RS_rec_text.started,RS_rec_text.stopped,Pause_cont.started,Pause_cont.stopped,QA_intro_title.started,QA_intro_title.stopped,QA_intro_text.text,QA_intro_text.started,QA_intro_text.stopped,QA_intro_audio.started,QA_intro_audio.stopped,QA_intro_cont.started,QA_intro_cont.stopped,QA_rec_text.text,QA_rec_text.started,QA_rec_text.stopped,QA_rec_beep_hint.started,QA_rec_beep_hint.stopped,QA_rec_question.sen_text,QA_rec_question.cen_text,QA_rec_question.started,QA_rec_question.stopped,QA_rec_beep_start.started,QA_rec_beep_start.stopped,QA_rec_beep_end.started,QA_rec_beep_end.stopped,QA_rec_break.started,QA_rec_break.stopped,filename,participant,session,First language,German level,Full_screen,Instruction,Intro,Artifact,Cali_pre,Fade_in_out,Artifact_within,Resting_State,QA,Pause,Cali_post,End,Breakpoint_Cali_pre_trial,Breakpoint_Run,Breakpoint_RS_block,Breakpoint_QA_block,Breakpoint_QA_trial,Breakpoint_Cali_post_trial,date,expName,psychopyVersion,frameRate,
1,0,1,0,0,0,0,0,0,0,0,0,Please remain seated until further instruction via the earphone.,58.35538601875305,None,268.78387904167175,None," - Task: Keep seated and relaxed with either      
             opening or closing eyes                  
 - Beep sound with decreasing pitch: Block finish 
",268.78387904167175,None,268.7810462474823,None,"Please keep relaxed and open your eyes.
Note: Blinking is allowed.",291.8179831504822,471.82748317718506,475.210422039032,None,489.2447900772095,None," - Task: Listen to the question& Speak out answer 
 - Melodious beep sound: Trial start              
 - Silent sound (blank): censored word            
 - Beep sound with increasing pitch: Rec. start   
 - Beep sound with decreasing pitch: Rec. finish  
",489.2447900772095,None,489.2249339580536,None,528.6129631996155,None,Listen to the question and speak out your answer!,531.6977951526642,None,531.6771351814269,533.6798601150513,Im Nil schwimmen heilige Krokodile.,schwimmen,533.0633752822876,535.5306169986725,535.9301181316375,None,548.2639501571655,549.2640390396118,549.6640632152557,550.6640200614929,./data/Subject_01/Session_03/Exp_data/2020_Jul_16_1745/rec_QA_run_01_block_000_trial_000.wav,01,03,English,A2,True,False,True,False,False,True,True,True,True,True,True,True,No,1,No,No,No,No,2020_Jul_16_1745,nibs_stage_1,3.2.3,60.01928949409437,
1,0,1,0,0,0,0,0,1,0,1,0,,,,,,,,,,,,,,,,,,,,,,,,,Listen to the question and speak out your answer!,552.7490341663361,None,552.7291094303131,554.7309920787811,Ich konnte meine Brille nicht finden.,finden,554.0978391647338,None,556.5311511039733,None,569.2983983039856,None,570.6984720230103,571.6985590457916,./data/Subject_01/Session_03/Exp_data/2020_Jul_16_1745/rec_QA_run_01_block_000_trial_001.wav,01,03,English,A2,True,False,True,False,False,True,True,True,True,True,True,True,No,1,No,No,No,No,2020_Jul_16_1745,nibs_stage_1,3.2.3,60.01928949409437,
1,0,1,0,0,0,0,0,2,0,2,0,,,,,,,,,,,,,,,,,,,,,,,,,Listen to the question and speak out your answer!,573.7492311000824,None,573.730257320404,575.7320501804352,Im ganzen Umkreis war kein Haus zu finden.,finden,575.1153591156005,None,578.2989392757415,None,590.3161762237548,591.3163931369781,591.7162230014801,592.7163300514221,./data/Subject_01/Session_03/Exp_data/2020_Jul_16_1745/rec_QA_run_01_block_000_trial_002.wav,01,03,English,A2,True,False,True,False,False,True,True,True,True,True,True,True,No,1,No,No,No,No,2020_Jul_16_1745,nibs_stage_1,3.2.3,60.01928949409437,
1,0,1,0,0,0,0,0,3,0,3,0,,,,,,,,,,,,,,,,,,,,,,,,,Listen to the question and speak out your answer!,594.8008301258087,None,594.7813214302063,596.7831962108612,Mein Vater arbeitet in einer Papierfabrik.,arbeitet,596.1830981254577,599.0167021751404,599.4166253089904,None,611.3843131542205,None,612.8007640838623,None,./data/Subject_01/Session_03/Exp_data/2020_Jul_16_1745/rec_QA_run_01_block_000_trial_003.wav,01,03,English,A2,True,False,True,False,False,True,True,True,True,True,True,True,No,1,No,No,No,No,2020_Jul_16_1745,nibs_stage_1,3.2.3,60.01928949409437,
1,0,1,0,0,0,0,0,4,0,4,0,,,,,,,,,,,,,,,,,,,,,,,,,Listen to the question and speak out your answer!,615.8511700630188,None,615.8325983524322,617.8344881534576,Ein König wohnt in einem Schloss.,wohnt,617.2179031848907,None,619.5843232154846,None,632.4183183193206,None,633.8350582122803,None,./data/Subject_01/Session_03/Exp_data/2020_Jul_16_1745/rec_QA_run_01_block_000_trial_004.wav,01,03,English,A2,True,False,True,False,False,True,True,True,True,True,True,True,No,1,No,No,No,No,2020_Jul_16_1745,nibs_stage_1,3.2.3,60.01928949409437,
1,0,1,0,0,0,0,0,5,0,5,0,,,,,,,,,,,,,,,,,,,,,,,,,Listen to the question and speak out your answer!,636.9027631282806,None,636.8834675788879,638.902015209198,Die Wassermelone schmeckt sehr süß.,schmeckt,638.2852972030639,640.7354362010956,641.1187801837921,None,653.4860842704772,654.5028240680695,654.9028310775757,None,./data/Subject_01/Session_03/Exp_data/2020_Jul_16_1745/rec_QA_run_01_block_000_trial_005.wav,01,03,English,A2,True,False,True,False,False,True,True,True,True,True,True,True,No,1,No,No,No,No,2020_Jul_16_1745,nibs_stage_1,3.2.3,60.01928949409437,
1,0,1,0,0,0,0,0,6,0,6,0,,,,,,,,,,,,,,,,,,,,,,,,,Listen to the question and speak out your answer!,657.9699811935425,None,657.9512113571167,659.9699001312256,"Ich habe mir ein neues Ziel gesetzt, das ich erreichen möchte.",erreichen,659.3198121070861,663.0365951061249,663.4198532581329,None,674.5205131053924,None,675.9372670650482,None,./data/Subject_01/Session_03/Exp_data/2020_Jul_16_1745/rec_QA_run_01_block_000_trial_006.wav,01,03,English,A2,True,False,True,False,False,True,True,True,True,True,True,True,No,1,No,No,No,No,2020_Jul_16_1745,nibs_stage_1,3.2.3,60.01928949409437,
1,0,1,0,0,0,0,0,7,0,7,0,,,,,,,,,,,,,,,,,,,,,,,,,Listen to the question and speak out your answer!,679.0042860507965,None,678.969133234024,681.0044770240784,Bitte gib mir ein Stück Kuchen und eine Schale mit Obst.,gib,680.3875821113586,None,684.1543541431427,None,695.5882583141326,None,697.0049340724945,None,./data/Subject_01/Session_03/Exp_data/2020_Jul_16_1745/rec_QA_run_01_block_000_trial_007.wav,01,03,English,A2,True,False,True,False,False,True,True,True,True,True,True,True,No,1,No,No,No,No,2020_Jul_16_1745,nibs_stage_1,3.2.3,60.01928949409437,
1,0,1,0,0,0,0,0,8,0,8,0,,,,,,,,,,,,,,,,,,,,,,,,,Listen to the question and speak out your answer!,700.0401999950409,None,700.0201393604278,702.0385921001434,Marie mag lieber Sport.,mag,701.42189412117,703.2053442001343,703.5553391456604,None,716.6227043151855,None,718.0394370555878,None,./data/Subject_01/Session_03/Exp_data/2020_Jul_16_1745/rec_QA_run_01_block_000_trial_008.wav,01,03,English,A2,True,False,True,False,False,True,True,True,True,True,True,True,No,1,No,No,No,No,2020_Jul_16_1745,nibs_stage_1,3.2.3,60.01928949409437,
1,0,1,0,0,0,0,0,9,0,9,0,,,,,,,,,,,,,,,,,,,,,,,,,Listen to the question and speak out your answer!,721.1062982082367,None,721.0878373622894,723.1063580513,"Hier gibt es viele Tiere, die auf verschiedenen Kontinenten leben.",leben,722.4896541118621,726.5398840904236,726.9232211589813,None,737.6903651237487,738.7072122097015,739.1072452068329,None,./data/Subject_01/Session_03/Exp_data/2020_Jul_16_1745/rec_QA_run_01_block_000_trial_009.wav,01,03,English,A2,True,False,True,False,False,True,True,True,True,True,True,True,No,1,No,No,No,No,2020_Jul_16_1745,nibs_stage_1,3.2.3,60.01928949409437,
1,0,1,0,0,0,0,0,10,0,10,0,,,,,,,,,,,,,,,,,,,,,,,,,Listen to the question and speak out your answer!,742.1407880783081,None,742.1056164264678,744.1408021450043,Wer soll den Geschirrspüler einräumen?,einräumen,743.5240672111511,None,746.0908792495727,None,758.7250001907348,None,760.1416320800781,None,./data/Subject_01/Session_03/Exp_data/2020_Jul_16_1745/rec_QA_run_01_block_000_trial_010.wav,01,03,English,A2,True,False,True,False,False,True,True,True,True,True,True,True,No,1,No,No,No,No,2020_Jul_16_1745,nibs_stage_1,3.2.3,60.01928949409437,
1,0,1,0,0,0,0,0,11,0,11,0,,,,,,,,,,,,,,,,,,,,,,,,,Listen to the question and speak out your answer!,763.1933491230011,None,763.1733386039733,765.1919960975647,Abgase werden das Klima schädigen.,schädigen,764.575157213211,767.025591135025,767.408656167984,None,779.759337234497,780.7760310173035,781.1760590076447,None,./data/Subject_01/Session_03/Exp_data/2020_Jul_16_1745/rec_QA_run_01_block_000_trial_011.wav,01,03,English,A2,True,False,True,False,False,True,True,True,True,True,True,True,No,1,No,No,No,No,2020_Jul_16_1745,nibs_stage_1,3.2.3,60.01928949409437,
1,0,1,0,0,0,0,0,12,0,12,0,,,,,,,,,,,,,,,,,,,,,,,,,Listen to the question and speak out your answer!,784.2267570495605,None,784.2077914237975,786.226312160492,Die Bergsteiger sind in die Wand eingestiegen.,eingestiegen,785.6095142841339,None,788.5430782318115,None,800.8103781223297,None,802.2271339893341,None,./data/Subject_01/Session_03/Exp_data/2020_Jul_16_1745/rec_QA_run_01_block_000_trial_012.wav,01,03,English,A2,True,False,True,False,False,True,True,True,True,True,True,True,No,1,No,No,No,No,2020_Jul_16_1745,nibs_stage_1,3.2.3,60.01928949409437,
1,0,1,0,0,0,0,0,13,0,13,0,,,,,,,,,,,,,,,,,,,,,,,,,Listen to the question and speak out your answer!,805.2776691913605,None,805.258845424652,807.2772881984711,"In den Zeitungen , im Radio und im Fernsehen wird regelmäßig über Sport berichtet.",berichtet,806.6606572151184,None,812.2609773159027,None,821.8615673065185,None,823.2782599925995,None,./data/Subject_01/Session_03/Exp_data/2020_Jul_16_1745/rec_QA_run_01_block_000_trial_013.wav,01,03,English,A2,True,False,True,False,False,True,True,True,True,True,True,True,No,1,No,No,No,No,2020_Jul_16_1745,nibs_stage_1,3.2.3,60.01928949409437,
1,0,1,0,0,0,0,0,14,0,14,0,,,,,,,,,,,,,,,,,,,,,,,,,Listen to the question and speak out your answer!,826.3451461791992,None,826.3099764347076,828.345507144928,"Es freut mich sehr, Sie kennenzulernen.",freut,827.6954031467437,830.1785972118378,830.5619202136993,None,842.8958981513977,None,844.3126912117004,None,./data/Subject_01/Session_03/Exp_data/2020_Jul_16_1745/rec_QA_run_01_block_000_trial_014.wav,01,03,English,A2,True,False,True,False,False,True,True,True,True,True,True,True,No,1,No,No,No,No,2020_Jul_16_1745,nibs_stage_1,3.2.3,60.01928949409437,
1,0,1,0,0,0,0,0,15,0,15,0,,,,,,,,,,,,,,,,,,,,,,,,,Listen to the question and speak out your answer!,847.3801550865173,None,847.344442462921,849.3796720504761,"Wenn Sie nicht aufpassen, könnten Sie sich die Finger verletzen.",aufpassen,848.7295213222503,None,852.4630172729492,853.479807138443,863.9303191184997,None,865.3470900058746,None,./data/Subject_01/Session_03/Exp_data/2020_Jul_16_1745/rec_QA_run_01_block_000_trial_015.wav,01,03,English,A2,True,False,True,False,False,True,True,True,True,True,True,True,No,1,No,No,No,No,2020_Jul_16_1745,nibs_stage_1,3.2.3,60.01928949409437,
1,0,1,0,0,0,0,0,16,0,16,0,,,,,,,,,,,,,,,,,,,,,,,,,Listen to the question and speak out your answer!,868.4139611721039,None,868.378807401657,870.4140090942383,Entweder hat mir jemand die Geldtasche gestohlen oder ich habe sie verloren.,verloren,869.76417927742,None,874.4975662708282,None,884.9647403240203,885.9814910888672,886.3815310001373,None,./data/Subject_01/Session_03/Exp_data/2020_Jul_16_1745/rec_QA_run_01_block_000_trial_016.wav,01,03,English,A2,True,False,True,False,False,True,True,True,True,True,True,True,No,1,No,No,No,No,2020_Jul_16_1745,nibs_stage_1,3.2.3,60.01928949409437,
1,0,1,0,0,0,0,0,17,0,17,0,,,,,,,,,,,,,,,,,,,,,,,,,Listen to the question and speak out your answer!,889.4490129947662,None,889.4132274150847,891.4484281539917,Ich muss mein Versprechen halten.,halten,890.7982953071594,None,893.1651552200317,894.181892156601,905.9991662979126,None,907.4159359931946,None,./data/Subject_01/Session_03/Exp_data/2020_Jul_16_1745/rec_QA_run_01_block_000_trial_017.wav,01,03,English,A2,True,False,True,False,False,True,True,True,True,True,True,True,No,1,No,No,No,No,2020_Jul_16_1745,nibs_stage_1,3.2.3,60.01928949409437,
1,0,1,0,0,0,0,0,18,0,18,0,,,,,,,,,,,,,,,,,,,,,,,,,Listen to the question and speak out your answer!,910.4828460216522,None,910.4478033542632,912.4828569889069,Das Friedensabkommen hat den Krieg beendet.,beendet,911.8328261852264,914.3829572200775,914.7996271133422,None,927.033632326126,928.0503571033478,928.4503591060638,None,./data/Subject_01/Session_03/Exp_data/2020_Jul_16_1745/rec_QA_run_01_block_000_trial_018.wav,01,03,English,A2,True,False,True,False,False,True,True,True,True,True,True,True,No,1,No,No,No,No,2020_Jul_16_1745,nibs_stage_1,3.2.3,60.01928949409437,
1,0,1,0,0,0,0,0,19,0,19,0,,,,,,,,,,,,,,,,,,,,,,,,,Listen to the question and speak out your answer!,931.5015141963959,None,931.4821003437041,933.5007112026215,Ferdinand Magellan hat als Erster die Welt umsegelt.,umsegelt,932.8839083194732,None,936.6507711887359,None,948.0847061157226,None,949.5015552043915,None,./data/Subject_01/Session_03/Exp_data/2020_Jul_16_1745/rec_QA_run_01_block_000_trial_019.wav,01,03,English,A2,True,False,True,False,False,True,True,True,True,True,True,True,No,1,No,No,No,No,2020_Jul_16_1745,nibs_stage_1,3.2.3,60.01928949409437,
1,0,1,0,0,0,0,0,20,0,20,0,,,,,,,,,,,,,,,,,,,,,,,,,Listen to the question and speak out your answer!,952.5535051822662,None,952.5331872463225,954.5517020225525,"Er benutzt Twitter, um mit anderen zu chatten.",benutzt,953.9350772380828,None,957.1018481731414,None,969.1357582092285,None,970.5525391101837,None,./data/Subject_01/Session_03/Exp_data/2020_Jul_16_1745/rec_QA_run_01_block_000_trial_020.wav,01,03,English,A2,True,False,True,False,False,True,True,True,True,True,True,True,No,1,No,No,No,No,2020_Jul_16_1745,nibs_stage_1,3.2.3,60.01928949409437,
1,0,1,0,0,0,0,0,21,0,21,0,,,,,,,,,,,,,,,,,,,,,,,,,Listen to the question and speak out your answer!,973.6200621128082,None,973.5844202995299,975.619448184967,Ich muss den Anzug vor der Geschäftsreise in den Koffer einpacken.,einpacken,975.0027661800384,None,979.1029611110687,None,990.2035322666168,None,991.6202940940857,None,./data/Subject_01/Session_03/Exp_data/2020_Jul_16_1745/rec_QA_run_01_block_000_trial_021.wav,01,03,English,A2,True,False,True,False,False,True,True,True,True,True,True,True,No,1,No,No,No,No,2020_Jul_16_1745,nibs_stage_1,3.2.3,60.01928949409437,
1,0,1,0,0,0,0,0,22,0,22,0,,,,,,,,,,,,,,,,,,,,,,,,,Listen to the question and speak out your answer!,994.6374599933624,None,994.6186862945556,996.637237071991,Das Auto wurde in Deutschland hergestellt.,hergestellt,995.9875193119049,None,998.9539862155914,None,1011.1879601955413,1012.2047190666199,1012.6047241687775,None,./data/Subject_01/Session_03/Exp_data/2020_Jul_16_1745/rec_QA_run_01_block_000_trial_022.wav,01,03,English,A2,True,False,True,False,False,True,True,True,True,True,True,True,No,1,No,No,No,No,2020_Jul_16_1745,nibs_stage_1,3.2.3,60.01928949409437,
1,0,1,0,0,0,0,0,23,0,23,0,,,,,,,,,,,,,,,,,,,,,,,,,Listen to the question and speak out your answer!,1015.6557700634003,None,1015.6364334583282,1017.654972076416,"Wir brauchen Obst und Gemüse, also muss ich auf den Markt gehen.",gehen,1017.0382581233978,None,1021.2051291942596,None,1032.23905210495,1033.255835056305,1033.6558241844177,None,./data/Subject_01/Session_03/Exp_data/2020_Jul_16_1745/rec_QA_run_01_block_000_trial_023.wav,01,03,English,A2,True,False,True,False,False,True,True,True,True,True,True,True,No,1,No,No,No,No,2020_Jul_16_1745,nibs_stage_1,3.2.3,60.01928949409437,
1,0,1,0,0,0,0,0,24,0,24,0,,,,,,,,,,,,,,,,,,,,,,,,,Listen to the question and speak out your answer!,1036.7232902050018,None,1036.6876083374023,1038.7227342128754,Wir freuen uns von Herzen über seine ausgezeichnete Leistung.,freuen,1038.1060371875762,None,1042.4062462329864,1043.422888994217,1053.3067873001098,1054.3235352039337,1054.7235481739044,None,./data/Subject_01/Session_03/Exp_data/2020_Jul_16_1745/rec_QA_run_01_block_000_trial_024.wav,01,03,English,A2,True,False,True,False,False,True,True,True,True,True,True,True,No,1,No,No,No,No,2020_Jul_16_1745,nibs_stage_1,3.2.3,60.01928949409437,
1,0,1,0,0,0,0,0,,,,,,,,,,,,,,,,,,1058.7403490543365,None,,,,,,,,,,,,,,,,,,,,,,,,,,01,03,English,A2,True,False,True,False,False,True,True,True,True,True,True,True,No,1,No,No,No,No,2020_Jul_16_1745,nibs_stage_1,3.2.3,60.01928949409437,
1,0,1,0,1,0,1,0,0,0,0,0,,,,,,,,,,,,,,,,,,,,,,,,,Listen to the question and speak out your answer!,1072.8417851924896,None,1072.8054729938506,1074.8412911891937,Ich gratuliere dir zum Abschluss mit höchster Auszeichnung. ,gratuliere,1074.1911652565002,None,1078.0912802696228,None,1089.3919301509857,None,1090.8086791038513,None,./data/Subject_01/Session_03/Exp_data/2020_Jul_16_1745/rec_QA_run_01_block_001_trial_000.wav,01,03,English,A2,True,False,True,False,False,True,True,True,True,True,True,True,No,1,No,No,No,No,2020_Jul_16_1745,nibs_stage_1,3.2.3,60.01928949409437,
1,0,1,0,1,0,1,0,1,0,1,0,,,,,,,,,,,,,,,,,,,,,,,,,Listen to the question and speak out your answer!,1093.877102136612,None,1093.8570944309233,1095.8756132125854,Mit der Benzin wird der Motor des Autos angetrieben.,angetrieben,1095.2588842391967,1098.3760161399841,1098.7257543087005,None,1110.4596512794494,None,1111.876415014267,None,./data/Subject_01/Session_03/Exp_data/2020_Jul_16_1745/rec_QA_run_01_block_001_trial_001.wav,01,03,English,A2,True,False,True,False,False,True,True,True,True,True,True,True,No,1,No,No,No,No,2020_Jul_16_1745,nibs_stage_1,3.2.3,60.01928949409437,
1,0,1,0,1,0,1,0,2,0,2,0,,,,,,,,,,,,,,,,,,,,,,,,,Listen to the question and speak out your answer!,1114.9438631534576,None,1114.9081393241881,1116.9433710575104,"Nachdem mein erster Versuch gescheitert war, probierte ich es noch einmal.",probierte,1116.2932942390441,1120.4101951122284,1120.7934992790222,None,1131.4940603256225,None,1132.9108180999756,None,./data/Subject_01/Session_03/Exp_data/2020_Jul_16_1745/rec_QA_run_01_block_001_trial_002.wav,01,03,English,A2,True,False,True,False,False,True,True,True,True,True,True,True,No,1,No,No,No,No,2020_Jul_16_1745,nibs_stage_1,3.2.3,60.01928949409437,
1,0,1,0,1,0,1,0,3,0,3,0,,,,,,,,,,,,,,,,,,,,,,,,,Listen to the question and speak out your answer!,1135.9618511199951,None,1135.9425323963164,1137.9610509872437,Der Lehrer unterrichtet Schüler und bringt ihnen verschiedene Dinge bei.,unterrichtet,1137.3110101699829,1141.3612360954285,1141.777907180786,None,1152.5117552757263,None,1153.9284319877625,None,./data/Subject_01/Session_03/Exp_data/2020_Jul_16_1745/rec_QA_run_01_block_001_trial_003.wav,01,03,English,A2,True,False,True,False,False,True,True,True,True,True,True,True,No,1,No,No,No,No,2020_Jul_16_1745,nibs_stage_1,3.2.3,60.01928949409437,
1,0,1,0,1,0,1,0,4,0,4,0,,,,,,,,,,,,,,,,,,,,,,,,,Listen to the question and speak out your answer!,1156.9786331653595,None,1156.9602833747863,1158.9788410663605,Das Volleyballspiel wird in einer Sporthalle ausgetragen.,ausgetragen,1158.3623652935028,None,1162.1622751235961,None,1173.5628252506256,None,1174.979662179947,None,./data/Subject_01/Session_03/Exp_data/2020_Jul_16_1745/rec_QA_run_01_block_001_trial_004.wav,01,03,English,A2,True,False,True,False,False,True,True,True,True,True,True,True,No,1,No,No,No,No,2020_Jul_16_1745,nibs_stage_1,3.2.3,60.01928949409437,
1,0,1,0,1,0,1,0,5,0,5,0,,,,,,,,,,,,,,,,,,,,,,,,,Listen to the question and speak out your answer!,1178.0299060344696,None,1178.0113132953643,1180.0298471450806,"Ich wusste nicht, ob ich lachen oder weinen sollte.",lachen,1179.413114118576,None,1182.7467573165893,None,1194.613891172409,1195.6306281089783,1196.030632019043,None,./data/Subject_01/Session_03/Exp_data/2020_Jul_16_1745/rec_QA_run_01_block_001_trial_005.wav,01,03,English,A2,True,False,True,False,False,True,True,True,True,True,True,True,No,1,No,No,No,No,2020_Jul_16_1745,nibs_stage_1,3.2.3,60.01928949409437,
1,0,1,0,1,0,1,0,6,0,6,0,,,,,,,,,,,,,,,,,,,,,,,,,Listen to the question and speak out your answer!,1199.0825262069702,None,1199.0622943401336,1201.080901145935,An Regentagen benutzen die Leute einen Regenschirm.,benutzen,1200.4308453083038,1203.781021118164,1204.1643662929534,None,1215.6315451145172,None,1217.0482811927795,None,./data/Subject_01/Session_03/Exp_data/2020_Jul_16_1745/rec_QA_run_01_block_001_trial_006.wav,01,03,English,A2,True,False,True,False,False,True,True,True,True,True,True,True,No,1,No,No,No,No,2020_Jul_16_1745,nibs_stage_1,3.2.3,60.01928949409437,
1,0,1,0,1,0,1,0,7,0,7,0,,,,,,,,,,,,,,,,,,,,,,,,,Listen to the question and speak out your answer!,1220.115525007248,None,1220.0967453956603,1222.1152901649475,Moni hat eine Fahrkarte für den Zug nach Salzburg gekauft.,gekauft,1221.4985893249511,1225.2490401268005,1225.632138299942,None,1236.6660283088684,None,1238.0827651023865,None,./data/Subject_01/Session_03/Exp_data/2020_Jul_16_1745/rec_QA_run_01_block_001_trial_007.wav,01,03,English,A2,True,False,True,False,False,True,True,True,True,True,True,True,No,1,No,No,No,No,2020_Jul_16_1745,nibs_stage_1,3.2.3,60.01928949409437,
1,0,1,0,1,0,1,0,8,0,8,0,,,,,,,,,,,,,,,,,,,,,,,,,Listen to the question and speak out your answer!,1241.1502470970154,None,1241.114498233795,1243.149687051773,Können Sie fünfzig Euro wechseln?,wechseln,1242.4996521949768,1244.6832010746002,1245.066440153122,None,1257.7004292488098,None,1259.1172029972076,None,./data/Subject_01/Session_03/Exp_data/2020_Jul_16_1745/rec_QA_run_01_block_001_trial_008.wav,01,03,English,A2,True,False,True,False,False,True,True,True,True,True,True,True,No,1,No,No,No,No,2020_Jul_16_1745,nibs_stage_1,3.2.3,60.01928949409437,
1,0,1,0,1,0,1,0,9,0,9,0,,,,,,,,,,,,,,,,,,,,,,,,,Listen to the question and speak out your answer!,1262.185506105423,None,1262.1655425071715,1264.184070110321,"Wissen Sie, wer als erster Bergsteiger den Mount Everest bestiegen hat?",bestiegen,1263.5673802375793,1267.9509460926056,1268.3009491443634,None,1278.7681482315063,1279.7850420475006,1280.1849660873413,None,./data/Subject_01/Session_03/Exp_data/2020_Jul_16_1745/rec_QA_run_01_block_001_trial_009.wav,01,03,English,A2,True,False,True,False,False,True,True,True,True,True,True,True,No,1,No,No,No,No,2020_Jul_16_1745,nibs_stage_1,3.2.3,60.01928949409437,
1,0,1,0,1,0,1,0,10,0,10,0,,,,,,,,,,,,,,,,,,,,,,,,,Listen to the question and speak out your answer!,1283.2523760795593,None,1283.2166503429412,1285.251825094223,"Nachdem ich nicht da war, kann ich nichts dazu sagen.",sagen,1284.6017570972442,None,1288.035416173935,None,1299.802542257309,None,1301.2193160057068,None,./data/Subject_01/Session_03/Exp_data/2020_Jul_16_1745/rec_QA_run_01_block_001_trial_010.wav,01,03,English,A2,True,False,True,False,False,True,True,True,True,True,True,True,No,1,No,No,No,No,2020_Jul_16_1745,nibs_stage_1,3.2.3,60.01928949409437,
1,0,1,0,1,0,1,0,11,0,11,0,,,,,,,,,,,,,,,,,,,,,,,,,Listen to the question and speak out your answer!,1304.2871141433716,None,1304.2510434150695,1306.2862091064453,"Kunden sollten Produkte sorgfältig prüfen, bevor sie sie kaufen.",prüfen,1305.6361592292785,None,1310.0697331905365,None,1320.8369591712951,None,1322.2537021636963,None,./data/Subject_01/Session_03/Exp_data/2020_Jul_16_1745/rec_QA_run_01_block_001_trial_011.wav,01,03,English,A2,True,False,True,False,False,True,True,True,True,True,True,True,No,1,No,No,No,No,2020_Jul_16_1745,nibs_stage_1,3.2.3,60.01928949409437,
1,0,1,0,1,0,1,0,12,0,12,0,,,,,,,,,,,,,,,,,,,,,,,,,Listen to the question and speak out your answer!,1325.3055350780487,None,1325.2854262351989,1327.3040211200714,Meine Großtante starb letztes Jahr und wurde neben ihrem Mann begraben.,begraben,1326.6872232437133,None,1331.3541462898254,None,1341.8880062580108,None,1343.3047881126404,None,./data/Subject_01/Session_03/Exp_data/2020_Jul_16_1745/rec_QA_run_01_block_001_trial_012.wav,01,03,English,A2,True,False,True,False,False,True,True,True,True,True,True,True,No,1,No,No,No,No,2020_Jul_16_1745,nibs_stage_1,3.2.3,60.01928949409437,
1,0,1,0,1,0,1,0,13,0,13,0,,,,,,,,,,,,,,,,,,,,,,,,,Listen to the question and speak out your answer!,1346.3722081184387,None,1346.3365083694457,1348.3718101978302,Abends essen wir meistens kalt.,essen,1347.7549741744995,None,1350.155012178421,None,1362.955876159668,None,1364.3725101947784,None,./data/Subject_01/Session_03/Exp_data/2020_Jul_16_1745/rec_QA_run_01_block_001_trial_013.wav,01,03,English,A2,True,False,True,False,False,True,True,True,True,True,True,True,No,1,No,No,No,No,2020_Jul_16_1745,nibs_stage_1,3.2.3,60.01928949409437,
1,0,1,0,1,0,1,0,14,0,14,0,,,,,,,,,,,,,,,,,,,,,,,,,Listen to the question and speak out your answer!,1367.3901960849762,None,1367.3708823680877,1369.3894250392914,Die Lampe hängt über dem Bett.,hängt,1368.772724199295,1370.656149148941,1371.0061512470245,1372.022893190384,1383.9735002994537,1384.9902601242065,1385.390233039856,None,./data/Subject_01/Session_03/Exp_data/2020_Jul_16_1745/rec_QA_run_01_block_001_trial_014.wav,01,03,English,A2,True,False,True,False,False,True,True,True,True,True,True,True,No,1,No,No,No,No,2020_Jul_16_1745,nibs_stage_1,3.2.3,60.01928949409437,
1,0,1,0,1,0,1,0,15,0,15,0,,,,,,,,,,,,,,,,,,,,,,,,,Listen to the question and speak out your answer!,1388.4571571350098,None,1388.4386135578154,1390.4570591449738,"Ob die bereitgestellte Information korrekt ist, müssen wir prüfen.",prüfen,1389.840428161621,None,1394.3406582355499,None,1405.0412161827087,1406.0581312179565,1406.4579811096191,None,./data/Subject_01/Session_03/Exp_data/2020_Jul_16_1745/rec_QA_run_01_block_001_trial_015.wav,01,03,English,A2,True,False,True,False,False,True,True,True,True,True,True,True,No,1,No,No,No,No,2020_Jul_16_1745,nibs_stage_1,3.2.3,60.01928949409437,
1,0,1,0,1,0,1,0,16,0,16,0,,,,,,,,,,,,,,,,,,,,,,,,,Listen to the question and speak out your answer!,1409.4749710559845,None,1409.4397292613983,1411.474888086319,"Ich wusste die Antwort nicht, also musste ich raten.",raten,1410.8581481456756,None,1414.2916031360626,None,1426.0255311012268,None,1427.442666053772,None,./data/Subject_01/Session_03/Exp_data/2020_Jul_16_1745/rec_QA_run_01_block_001_trial_016.wav,01,03,English,A2,True,False,True,False,False,True,True,True,True,True,True,True,No,1,No,No,No,No,2020_Jul_16_1745,nibs_stage_1,3.2.3,60.01928949409437,
1,0,1,0,1,0,1,0,17,0,17,0,,,,,,,,,,,,,,,,,,,,,,,,,Listen to the question and speak out your answer!,1430.5092861652374,None,1430.4908334255217,1432.5093040466309,Die technologische Entwicklung schafft immer kleinere Computer.,schafft,1431.8928602218627,None,1436.0927782535553,None,1447.0934861183166,None,1448.5101301670074,None,./data/Subject_01/Session_03/Exp_data/2020_Jul_16_1745/rec_QA_run_01_block_001_trial_017.wav,01,03,English,A2,True,False,True,False,False,True,True,True,True,True,True,True,No,1,No,No,No,No,2020_Jul_16_1745,nibs_stage_1,3.2.3,60.01928949409437,
1,0,1,0,1,0,1,0,18,0,18,0,,,,,,,,,,,,,,,,,,,,,,,,,Listen to the question and speak out your answer!,1451.527086019516,None,1451.5085352420806,1453.5270340442657,Was bedeutet Pressefreiheit für dich?,bedeutet,1452.9102752685546,None,1455.5436952590942,None,1468.1110852241516,1469.1278200149536,1469.5278182029724,None,./data/Subject_01/Session_03/Exp_data/2020_Jul_16_1745/rec_QA_run_01_block_001_trial_018.wav,01,03,English,A2,True,False,True,False,False,True,True,True,True,True,True,True,No,1,No,No,No,No,2020_Jul_16_1745,nibs_stage_1,3.2.3,60.01928949409437,
1,0,1,0,1,0,1,0,19,0,19,0,,,,,,,,,,,,,,,,,,,,,,,,,Listen to the question and speak out your answer!,1472.5619661808014,None,1472.5262332916259,1474.5615181922913,Alkoholsucht schadet der Gesundheit.,schadet,1473.9112582683563,1476.4282011985779,1476.8115292072296,None,1489.1121542930603,None,1490.5289452075958,None,./data/Subject_01/Session_03/Exp_data/2020_Jul_16_1745/rec_QA_run_01_block_001_trial_019.wav,01,03,English,A2,True,False,True,False,False,True,True,True,True,True,True,True,No,1,No,No,No,No,2020_Jul_16_1745,nibs_stage_1,3.2.3,60.01928949409437,
1,0,1,0,1,0,1,0,20,0,20,0,,,,,,,,,,,,,,,,,,,,,,,,,Listen to the question and speak out your answer!,1493.5958211421967,None,1493.5606673717498,1495.5958180427551,"Meine Eltern schauten vorbei, um sich meinen neuen Garten anzusehen.",anzusehen,1494.9796402931213,None,1499.4126911640167,None,1510.1799021244049,1511.1966390609741,1511.596645116806,None,./data/Subject_01/Session_03/Exp_data/2020_Jul_16_1745/rec_QA_run_01_block_001_trial_020.wav,01,03,English,A2,True,False,True,False,False,True,True,True,True,True,True,True,No,1,No,No,No,No,2020_Jul_16_1745,nibs_stage_1,3.2.3,60.01928949409437,
1,0,1,0,1,0,1,0,21,0,21,0,,,,,,,,,,,,,,,,,,,,,,,,,Listen to the question and speak out your answer!,1514.6309251785278,None,1514.5951124191283,1516.630234003067,Beim Bäcker gibt es täglich frisches Brot.,gibt,1515.9801781654357,1518.5970129966736,1518.9803362369537,1519.9970860481262,1531.1810613155365,None,1532.59769821167,None,./data/Subject_01/Session_03/Exp_data/2020_Jul_16_1745/rec_QA_run_01_block_001_trial_021.wav,01,03,English,A2,True,False,True,False,False,True,True,True,True,True,True,True,No,1,No,No,No,No,2020_Jul_16_1745,nibs_stage_1,3.2.3,60.01928949409437,
1,0,1,0,1,0,1,0,22,0,22,0,,,,,,,,,,,,,,,,,,,,,,,,,Listen to the question and speak out your answer!,1535.6652491092682,None,1535.6294632911681,1537.6646721363068,Sam trinkt gerne eine Tasse Kaffee mit einem Stück Kuchen,trinkt,1537.0145962715148,None,1540.9814563274383,None,1552.21539311409,None,1553.6321082115173,None,./data/Subject_01/Session_03/Exp_data/2020_Jul_16_1745/rec_QA_run_01_block_001_trial_022.wav,01,03,English,A2,True,False,True,False,False,True,True,True,True,True,True,True,No,1,No,No,No,No,2020_Jul_16_1745,nibs_stage_1,3.2.3,60.01928949409437,
1,0,1,0,1,0,1,0,23,0,23,0,,,,,,,,,,,,,,,,,,,,,,,,,Listen to the question and speak out your answer!,1556.6995329856873,None,1556.6638253688811,1558.6990520954132,"Um mein Auto zu kaufen, die Bank hat mir das Geld geliehen.",geliehen,1558.082308101654,None,1561.9158752441406,None,1573.2831132888793,None,1574.6998810768127,None,./data/Subject_01/Session_03/Exp_data/2020_Jul_16_1745/rec_QA_run_01_block_001_trial_023.wav,01,03,English,A2,True,False,True,False,False,True,True,True,True,True,True,True,No,1,No,No,No,No,2020_Jul_16_1745,nibs_stage_1,3.2.3,60.01928949409437,
1,0,1,0,1,0,1,0,24,0,24,0,,,,,,,,,,,,,,,,,,,,,,,,,Listen to the question and speak out your answer!,1577.7339901924133,None,1577.6982732772826,1579.733458995819,"Sam ist nicht da, soll ich ihm sagen, dass Sie nachher zurück rufen?",rufen,1579.1167312145233,1583.1672019958496,1583.5169392108917,None,1594.3175261497497,1595.3342599868774,1595.7342760562897,None,./data/Subject_01/Session_03/Exp_data/2020_Jul_16_1745/rec_QA_run_01_block_001_trial_024.wav,01,03,English,A2,True,False,True,False,False,True,True,True,True,True,True,True,No,1,No,No,No,No,2020_Jul_16_1745,nibs_stage_1,3.2.3,60.01928949409437,
