run.thisRepN,run.thisTrialN,run.thisN,run.thisIndex,QA_block.thisRepN,QA_block.thisTrialN,QA_block.thisN,QA_block.thisIndex,QA_trial.thisRepN,QA_trial.thisTrialN,QA_trial.thisN,QA_trial.thisIndex,fade_in_text.text,fade_in_text.started,fade_in_text.stopped,RS_intro_title.started,RS_intro_title.stopped,RS_intro_text.text,RS_intro_text.started,RS_intro_text.stopped,RS_intro_audio.started,RS_intro_audio.stopped,RS_rec_text.text,RS_rec_text.started,RS_rec_text.stopped,Pause_cont.started,Pause_cont.stopped,QA_intro_title.started,QA_intro_title.stopped,QA_intro_text.text,QA_intro_text.started,QA_intro_text.stopped,QA_intro_audio.started,QA_intro_audio.stopped,QA_intro_cont.started,QA_intro_cont.stopped,QA_rec_text.text,QA_rec_text.started,QA_rec_text.stopped,QA_rec_beep_hint.started,QA_rec_beep_hint.stopped,QA_rec_question.sen_text,QA_rec_question.cen_text,QA_rec_question.started,QA_rec_question.stopped,QA_rec_beep_start.started,QA_rec_beep_start.stopped,QA_rec_beep_end.started,QA_rec_beep_end.stopped,QA_rec_break.started,QA_rec_break.stopped,filename,fade_out_text.text,fade_out_text.started,fade_out_text.stopped,participant,session,First language,German level,Full_screen,Instruction,Intro,Artifact,Cali_pre,Fade_in_out,Artifact_within,Resting_State,QA,Pause,Cali_post,End,Breakpoint_Cali_pre_trial,Breakpoint_Run,Breakpoint_RS_block,Breakpoint_QA_block,Breakpoint_QA_trial,Breakpoint_Cali_post_trial,date,expName,psychopyVersion,frameRate,
3,0,3,0,0,0,0,0,0,0,0,0,Please remain seated until further instruction via the earphone.,56.397634983062744,None,265.84186005592346,None," - Task: Keep seated and relaxed with either      
             opening or closing eyes                  
 - Beep sound with decreasing pitch: Block finish 
",265.84186005592346,None,265.84120402336123,None,"Please keep relaxed and open your eyes.
Note: Blinking is allowed.",288.8763289451599,468.88584995269775,472.26950192451477,None,486.2864980697632,None," - Task: Listen to the question& Speak out answer 
 - Melodious beep sound: Trial start              
 - Silent sound (blank): censored word            
 - Beep sound with increasing pitch: Rec. start   
 - Beep sound with decreasing pitch: Rec. finish  
",486.2864980697632,None,486.26855235099794,None,525.6885509490967,None,Listen to the question and speak out your answer!,528.7723410129547,None,528.7540828704833,530.7557489871979,Viele Tiere leben in Afrika.,leben,530.1390505313873,532.4890279769897,532.8890386104583,None,545.3397825241088,None,546.7398481369019,547.7399201393127,./data/Subject_01/Session_03/Exp_data/2020_Jul_16_1858/rec_QA_run_03_block_000_trial_000.wav,,,,01,03,English,A2,True,False,True,False,False,True,True,True,True,True,True,True,No,3,No,No,No,No,2020_Jul_16_1858,nibs_stage_1,3.2.3,59.99267667521054,
3,0,3,0,0,0,0,0,1,0,1,0,,,,,,,,,,,,,,,,,,,,,,,,,Listen to the question and speak out your answer!,549.8234639167786,None,549.8058253765106,551.823235988617,Der Tourist fragte nach dem Weg zum Opernhaus.,fragte,551.2065515995025,554.4232850074768,554.7733774662017,None,566.4073725223541,567.424024105072,567.8240571022034,None,./data/Subject_01/Session_03/Exp_data/2020_Jul_16_1858/rec_QA_run_03_block_000_trial_001.wav,,,,01,03,English,A2,True,False,True,False,False,True,True,True,True,True,True,True,No,3,No,No,No,No,2020_Jul_16_1858,nibs_stage_1,3.2.3,59.99267667521054,
3,0,3,0,0,0,0,0,2,0,2,0,,,,,,,,,,,,,,,,,,,,,,,,,Listen to the question and speak out your answer!,570.8915190696716,None,570.8733564853668,572.8910229206085,Wo werden Sie Urlaub machen?,machen,572.2742796421051,None,574.3410645008087,575.357705116272,587.4583955287933,None,588.8751411437988,None,./data/Subject_01/Session_03/Exp_data/2020_Jul_16_1858/rec_QA_run_03_block_000_trial_002.wav,,,,01,03,English,A2,True,False,True,False,False,True,True,True,True,True,True,True,No,3,No,No,No,No,2020_Jul_16_1858,nibs_stage_1,3.2.3,59.99267667521054,
3,0,3,0,0,0,0,0,3,0,3,0,,,,,,,,,,,,,,,,,,,,,,,,,Listen to the question and speak out your answer!,591.9425239562988,None,591.9244424343109,593.9421601295471,Toni fliegt mit dem Flugzeug nach.,fliegt,593.3254654884338,595.6755819320679,596.0589044570922,None,608.5262654304504,None,609.9429249763489,None,./data/Subject_01/Session_03/Exp_data/2020_Jul_16_1858/rec_QA_run_03_block_000_trial_003.wav,,,,01,03,English,A2,True,False,True,False,False,True,True,True,True,True,True,True,No,3,No,No,No,No,2020_Jul_16_1858,nibs_stage_1,3.2.3,59.99267667521054,
3,0,3,0,0,0,0,0,4,0,4,0,,,,,,,,,,,,,,,,,,,,,,,,,Listen to the question and speak out your answer!,613.0098230838776,None,612.9756189346313,615.0099301338196,Der Fallschirm wird im Fall geöffnet.,geöffnet,614.3932066440582,616.576740026474,616.9599974632263,None,629.5940094470977,None,631.0107409954071,None,./data/Subject_01/Session_03/Exp_data/2020_Jul_16_1858/rec_QA_run_03_block_000_trial_004.wav,,,,01,03,English,A2,True,False,True,False,False,True,True,True,True,True,True,True,No,3,No,No,No,No,2020_Jul_16_1858,nibs_stage_1,3.2.3,59.99267667521054,
3,0,3,0,0,0,0,0,5,0,5,0,,,,,,,,,,,,,,,,,,,,,,,,,Listen to the question and speak out your answer!,634.0447940826416,None,634.0100990295409,636.0444040298462,Das Kind kann die Tischkante noch nicht erreichen.,erreichen,635.4276235580444,None,638.4611485481262,None,650.6283336162567,651.6450190544128,652.0450410842896,None,./data/Subject_01/Session_03/Exp_data/2020_Jul_16_1858/rec_QA_run_03_block_000_trial_005.wav,,,,01,03,English,A2,True,False,True,False,False,True,True,True,True,True,True,True,No,3,No,No,No,No,2020_Jul_16_1858,nibs_stage_1,3.2.3,59.99267667521054,
3,0,3,0,0,0,0,0,6,0,6,0,,,,,,,,,,,,,,,,,,,,,,,,,Listen to the question and speak out your answer!,655.0451860427856,None,655.0276835441589,657.0453350543976,"Er ist zu schwach, um eine Firma zu führen.",führen,656.4286106109619,None,659.6287844657897,None,671.629463481903,672.6461160182953,673.0462191104889,None,./data/Subject_01/Session_03/Exp_data/2020_Jul_16_1858/rec_QA_run_03_block_000_trial_006.wav,,,,01,03,English,A2,True,False,True,False,False,True,True,True,True,True,True,True,No,3,No,No,No,No,2020_Jul_16_1858,nibs_stage_1,3.2.3,59.99267667521054,
3,0,3,0,0,0,0,0,7,0,7,0,,,,,,,,,,,,,,,,,,,,,,,,,Listen to the question and speak out your answer!,676.1133379936218,None,676.0955344676971,678.1130769252777,"Ich versuche, jede Woche ein Buch zu lesen.",lesen,677.4963806152343,None,680.8299506187439,None,692.6971695899963,None,694.1139209270477,None,./data/Subject_01/Session_03/Exp_data/2020_Jul_16_1858/rec_QA_run_03_block_000_trial_007.wav,,,,01,03,English,A2,True,False,True,False,False,True,True,True,True,True,True,True,No,3,No,No,No,No,2020_Jul_16_1858,nibs_stage_1,3.2.3,59.99267667521054,
3,0,3,0,0,0,0,0,8,0,8,0,,,,,,,,,,,,,,,,,,,,,,,,,Listen to the question and speak out your answer!,697.182459115982,None,697.1632184028625,699.1808431148529,"Ich rechne fest damit, dass er kommt.",rechne,698.5641375064849,None,701.3309495925903,702.3476929664612,713.7649584293365,None,715.1816589832306,None,./data/Subject_01/Session_03/Exp_data/2020_Jul_16_1858/rec_QA_run_03_block_000_trial_008.wav,,,,01,03,English,A2,True,False,True,False,False,True,True,True,True,True,True,True,No,3,No,No,No,No,2020_Jul_16_1858,nibs_stage_1,3.2.3,59.99267667521054,
3,0,3,0,0,0,0,0,9,0,9,0,,,,,,,,,,,,,,,,,,,,,,,,,Listen to the question and speak out your answer!,718.2493770122528,None,718.2309605121612,720.2485780715942,Der Amazon Kurier hat das Paket geliefert.,geliefert,719.6318705558776,None,722.8320494174957,None,734.8326564311981,None,736.2494370937347,None,./data/Subject_01/Session_03/Exp_data/2020_Jul_16_1858/rec_QA_run_03_block_000_trial_009.wav,,,,01,03,English,A2,True,False,True,False,False,True,True,True,True,True,True,True,No,3,No,No,No,No,2020_Jul_16_1858,nibs_stage_1,3.2.3,59.99267667521054,
3,0,3,0,0,0,0,0,10,0,10,0,,,,,,,,,,,,,,,,,,,,,,,,,Listen to the question and speak out your answer!,739.3179631233215,None,739.2987205028534,741.3163390159607,"Die Schneiderin änderte das Kleid, weil das Kleid zu groß ist.",änderte,740.6996415138244,744.6498110294342,745.0332084178924,None,755.9003985404968,None,757.3172290325165,None,./data/Subject_01/Session_03/Exp_data/2020_Jul_16_1858/rec_QA_run_03_block_000_trial_010.wav,,,,01,03,English,A2,True,False,True,False,False,True,True,True,True,True,True,True,No,3,No,No,No,No,2020_Jul_16_1858,nibs_stage_1,3.2.3,59.99267667521054,
3,0,3,0,0,0,0,0,11,0,11,0,,,,,,,,,,,,,,,,,,,,,,,,,Listen to the question and speak out your answer!,760.3846890926361,None,760.3665474891662,762.3840990066528,"Schultigung, Ich habe den falschen Knopf gedrückt.",gedrückt,761.7674115180969,764.6843221187592,765.0675924301147,None,776.9515645980835,None,778.3682689666748,None,./data/Subject_01/Session_03/Exp_data/2020_Jul_16_1858/rec_QA_run_03_block_000_trial_011.wav,,,,01,03,English,A2,True,False,True,False,False,True,True,True,True,True,True,True,No,3,No,No,No,No,2020_Jul_16_1858,nibs_stage_1,3.2.3,59.99267667521054,
3,0,3,0,0,0,0,0,12,0,12,0,,,,,,,,,,,,,,,,,,,,,,,,,Listen to the question and speak out your answer!,781.4527931213379,None,781.4176434516907,783.4519259929657,Ich kann in meiner Badewanne duschen.,duschen,782.8018124580383,None,785.2686884880065,786.2853951454163,798.002695608139,799.0194361209869,799.4194540977478,None,./data/Subject_01/Session_03/Exp_data/2020_Jul_16_1858/rec_QA_run_03_block_000_trial_012.wav,,,,01,03,English,A2,True,False,True,False,False,True,True,True,True,True,True,True,No,3,No,No,No,No,2020_Jul_16_1858,nibs_stage_1,3.2.3,59.99267667521054,
3,0,3,0,0,0,0,0,13,0,13,0,,,,,,,,,,,,,,,,,,,,,,,,,Listen to the question and speak out your answer!,802.5036470890045,None,802.4687925815582,804.5033810138702,Ihr fehlt es an ausreichender Berufserfahrung für diese Position.,fehlt,803.886350440979,807.9365720748901,808.3199046134948,809.3366370201111,819.0871406078338,None,820.5039019584656,None,./data/Subject_01/Session_03/Exp_data/2020_Jul_16_1858/rec_QA_run_03_block_000_trial_013.wav,,,,01,03,English,A2,True,False,True,False,False,True,True,True,True,True,True,True,No,3,No,No,No,No,2020_Jul_16_1858,nibs_stage_1,3.2.3,59.99267667521054,
3,0,3,0,0,0,0,0,14,0,14,0,,,,,,,,,,,,,,,,,,,,,,,,,Listen to the question and speak out your answer!,823.5546369552612,None,823.5198415756225,825.5541839599609,Die Uhr kann den zwölf Stunden Rhythmus zeigen.,zeigen,824.9042366027832,827.620954990387,828.0042925357818,None,840.1049585819244,None,841.521744966507,None,./data/Subject_01/Session_03/Exp_data/2020_Jul_16_1858/rec_QA_run_03_block_000_trial_014.wav,,,,01,03,English,A2,True,False,True,False,False,True,True,True,True,True,True,True,No,3,No,No,No,No,2020_Jul_16_1858,nibs_stage_1,3.2.3,59.99267667521054,
3,0,3,0,0,0,0,0,15,0,15,0,,,,,,,,,,,,,,,,,,,,,,,,,Listen to the question and speak out your answer!,844.6058731079102,None,844.5709954738617,846.6059551239014,Vater trägt den großen Rucksack auf dem Rücken.,trägt,845.9886036396026,None,849.322090435028,None,861.156068611145,862.1727139949799,862.5728280544281,None,./data/Subject_01/Session_03/Exp_data/2020_Jul_16_1858/rec_QA_run_03_block_000_trial_015.wav,,,,01,03,English,A2,True,False,True,False,False,True,True,True,True,True,True,True,No,3,No,No,No,No,2020_Jul_16_1858,nibs_stage_1,3.2.3,59.99267667521054,
3,0,3,0,0,0,0,0,16,0,16,0,,,,,,,,,,,,,,,,,,,,,,,,,Listen to the question and speak out your answer!,865.641165971756,None,865.6221264839172,867.6397619247437,Alle Schüler müssen die Vorschrift halten.,halten,867.0230856418609,869.4398579597473,869.823202419281,None,882.2238965511322,None,883.6406140327454,None,./data/Subject_01/Session_03/Exp_data/2020_Jul_16_1858/rec_QA_run_03_block_000_trial_016.wav,,,,01,03,English,A2,True,False,True,False,False,True,True,True,True,True,True,True,No,3,No,No,No,No,2020_Jul_16_1858,nibs_stage_1,3.2.3,59.99267667521054,
3,0,3,0,0,0,0,0,17,0,17,0,,,,,,,,,,,,,,,,,,,,,,,,,Listen to the question and speak out your answer!,886.6747081279755,None,886.6399348735808,888.674232006073,"Ich hoffe, dass ich und meine Tante gute Freunde für immer bleiben können.",hoffe,888.0574174404144,None,892.52443151474,None,903.2583175182342,None,904.6750741004944,None,./data/Subject_01/Session_03/Exp_data/2020_Jul_16_1858/rec_QA_run_03_block_000_trial_017.wav,,,,01,03,English,A2,True,False,True,False,False,True,True,True,True,True,True,True,No,3,No,No,No,No,2020_Jul_16_1858,nibs_stage_1,3.2.3,59.99267667521054,
3,0,3,0,0,0,0,0,18,0,18,0,,,,,,,,,,,,,,,,,,,,,,,,,Listen to the question and speak out your answer!,907.725310087204,None,907.6909433841705,909.7253310680389,Jetzt liest er seiner Mutter eine Geschichte vor.,liest,909.0753994464874,911.8587830066681,912.2754636287689,None,924.2761185646057,None,925.6928119659424,None,./data/Subject_01/Session_03/Exp_data/2020_Jul_16_1858/rec_QA_run_03_block_000_trial_018.wav,,,,01,03,English,A2,True,False,True,False,False,True,True,True,True,True,True,True,No,3,No,No,No,No,2020_Jul_16_1858,nibs_stage_1,3.2.3,59.99267667521054,
3,0,3,0,0,0,0,0,19,0,19,0,,,,,,,,,,,,,,,,,,,,,,,,,Listen to the question and speak out your answer!,928.7603530883789,None,928.7254909038543,930.759861946106,Der ganze Kurs bestand die Prüfung.,bestand,930.1430824279785,None,932.776550579071,None,945.3439164638519,946.3606259822845,946.760656118393,None,./data/Subject_01/Session_03/Exp_data/2020_Jul_16_1858/rec_QA_run_03_block_000_trial_019.wav,,,,01,03,English,A2,True,False,True,False,False,True,True,True,True,True,True,True,No,3,No,No,No,No,2020_Jul_16_1858,nibs_stage_1,3.2.3,59.99267667521054,
3,0,3,0,0,0,0,0,20,0,20,0,,,,,,,,,,,,,,,,,,,,,,,,,Listen to the question and speak out your answer!,949.7959079742432,None,949.7766274452209,951.7942359447479,"Er beschäftigt sich damit, diese kaputte Maschine zu reparieren.",reparieren,951.1775265216827,955.1611571311951,955.5111155986785,None,966.3783565044403,None,967.7951469421387,None,./data/Subject_01/Session_03/Exp_data/2020_Jul_16_1858/rec_QA_run_03_block_000_trial_020.wav,,,,01,03,English,A2,True,False,True,False,False,True,True,True,True,True,True,True,No,3,No,No,No,No,2020_Jul_16_1858,nibs_stage_1,3.2.3,59.99267667521054,
3,0,3,0,0,0,0,0,21,0,21,0,,,,,,,,,,,,,,,,,,,,,,,,,Listen to the question and speak out your answer!,970.8286759853363,None,970.7943929195403,972.8286881446838,"Es wird nicht empfohlen, die Batterie völlig zu entladen.",empfohlen,972.211969423294,None,975.8788314342498,None,987.4127905845642,None,988.8294861316681,None,./data/Subject_01/Session_03/Exp_data/2020_Jul_16_1858/rec_QA_run_03_block_000_trial_021.wav,,,,01,03,English,A2,True,False,True,False,False,True,True,True,True,True,True,True,No,3,No,No,No,No,2020_Jul_16_1858,nibs_stage_1,3.2.3,59.99267667521054,
3,0,3,0,0,0,0,0,22,0,22,0,,,,,,,,,,,,,,,,,,,,,,,,,Listen to the question and speak out your answer!,991.8798069953918,None,991.8454834461212,993.879802942276,Bitte nimm meinen Mantel mit in die Garderobe.,nimm,993.2631214141845,None,996.3299406051635,None,1008.4639535427093,None,1009.8807649612427,None,./data/Subject_01/Session_03/Exp_data/2020_Jul_16_1858/rec_QA_run_03_block_000_trial_022.wav,,,,01,03,English,A2,True,False,True,False,False,True,True,True,True,True,True,True,No,3,No,No,No,No,2020_Jul_16_1858,nibs_stage_1,3.2.3,59.99267667521054,
3,0,3,0,0,0,0,0,23,0,23,0,,,,,,,,,,,,,,,,,,,,,,,,,Listen to the question and speak out your answer!,1012.9148070812225,None,1012.8799689769744,1014.9143679141998,Die Verkäuferin beantwortete meine Fragen und konnte mich beraten.,beraten,1014.2975564479827,1018.4144420623779,1018.7978115558624,None,1029.4983594894409,1030.515212059021,1030.915097951889,None,./data/Subject_01/Session_03/Exp_data/2020_Jul_16_1858/rec_QA_run_03_block_000_trial_023.wav,,,,01,03,English,A2,True,False,True,False,False,True,True,True,True,True,True,True,No,3,No,No,No,No,2020_Jul_16_1858,nibs_stage_1,3.2.3,59.99267667521054,
3,0,3,0,0,0,0,0,24,0,24,0,,,,,,,,,,,,,,,,,,,,,,,,,Listen to the question and speak out your answer!,1033.965840101242,None,1033.9312745571135,1035.96537399292,Er entschuldigte sich für seinen Fehler.,entschuldigte,1035.348674583435,None,1038.1821625709533,1039.1988730430603,1050.54946641922,None,1051.966229915619,None,./data/Subject_01/Session_03/Exp_data/2020_Jul_16_1858/rec_QA_run_03_block_000_trial_024.wav,,,,01,03,English,A2,True,False,True,False,False,True,True,True,True,True,True,True,No,3,No,No,No,No,2020_Jul_16_1858,nibs_stage_1,3.2.3,59.99267667521054,
3,0,3,0,0,0,0,0,,,,,,,,,,,,,,,,,,1055.9836120605469,None,,,,,,,,,,,,,,,,,,,,,,,,,,,,,01,03,English,A2,True,False,True,False,False,True,True,True,True,True,True,True,No,3,No,No,No,No,2020_Jul_16_1858,nibs_stage_1,3.2.3,59.99267667521054,
3,0,3,0,1,0,1,0,0,0,0,0,,,,,,,,,,,,,,,,,,,,,,,,,Listen to the question and speak out your answer!,1070.1511170864105,None,1070.1161623954772,1072.1506650447845,"Ich muss mich bemühen, das Ziel des Projektes zu erreichen.",erreichen,1071.500597524643,1075.1177310943604,1075.5010686397552,None,1086.701383638382,None,1088.1182911396027,None,./data/Subject_01/Session_03/Exp_data/2020_Jul_16_1858/rec_QA_run_03_block_001_trial_000.wav,,,,01,03,English,A2,True,False,True,False,False,True,True,True,True,True,True,True,No,3,No,No,No,No,2020_Jul_16_1858,nibs_stage_1,3.2.3,59.99267667521054,
3,0,3,0,1,0,1,0,1,0,1,0,,,,,,,,,,,,,,,,,,,,,,,,,Listen to the question and speak out your answer!,1091.1864140033722,None,1091.1674183845519,1093.18506193161,Wir sind mit dem Jeep auf Safari in Kenia gefahren.,gefahren,1092.5683954238891,1095.9520819187164,1096.335257577896,None,1107.7691824913024,None,1109.1859090328217,None,./data/Subject_01/Session_03/Exp_data/2020_Jul_16_1858/rec_QA_run_03_block_001_trial_001.wav,,,,01,03,English,A2,True,False,True,False,False,True,True,True,True,True,True,True,No,3,No,No,No,No,2020_Jul_16_1858,nibs_stage_1,3.2.3,59.99267667521054,
3,0,3,0,1,0,1,0,2,0,2,0,,,,,,,,,,,,,,,,,,,,,,,,,Listen to the question and speak out your answer!,1112.2199909687042,None,1112.1852398872375,1114.2195649147034,"Er lieh mir Geld, ohne Zinsen zu verlangen.",lieh,1113.6028326034545,1116.2529530525208,1116.636308479309,None,1128.8036106109619,1129.820363998413,1130.2203619480133,None,./data/Subject_01/Session_03/Exp_data/2020_Jul_16_1858/rec_QA_run_03_block_001_trial_002.wav,,,,01,03,English,A2,True,False,True,False,False,True,True,True,True,True,True,True,No,3,No,No,No,No,2020_Jul_16_1858,nibs_stage_1,3.2.3,59.99267667521054,
3,0,3,0,1,0,1,0,3,0,3,0,,,,,,,,,,,,,,,,,,,,,,,,,Listen to the question and speak out your answer!,1133.2539601325989,None,1133.2196599006652,1135.2540221214294,"Die Geheimzahl sollte nicht notiert werden, vor allem nicht auf der Bankomatkarte.",notiert,1134.6372435569763,None,1139.8375325679779,None,1149.8380525588989,None,1151.2548110485077,None,./data/Subject_01/Session_03/Exp_data/2020_Jul_16_1858/rec_QA_run_03_block_001_trial_003.wav,,,,01,03,English,A2,True,False,True,False,False,True,True,True,True,True,True,True,No,3,No,No,No,No,2020_Jul_16_1858,nibs_stage_1,3.2.3,59.99267667521054,
3,0,3,0,1,0,1,0,4,0,4,0,,,,,,,,,,,,,,,,,,,,,,,,,Listen to the question and speak out your answer!,1154.289221048355,None,1154.2707644939421,1156.288402080536,Fortschritt und Naturschutz sollten kein Gegensatz sein.,sein,1155.6716945648193,None,1159.471888589859,None,1170.855834531784,None,1172.2726011276245,None,./data/Subject_01/Session_03/Exp_data/2020_Jul_16_1858/rec_QA_run_03_block_001_trial_004.wav,,,,01,03,English,A2,True,False,True,False,False,True,True,True,True,True,True,True,No,3,No,No,No,No,2020_Jul_16_1858,nibs_stage_1,3.2.3,59.99267667521054,
3,0,3,0,1,0,1,0,5,0,5,0,,,,,,,,,,,,,,,,,,,,,,,,,Listen to the question and speak out your answer!,1175.3408031463623,None,1175.3217824935912,1177.3394899368286,Der Weg führt durch den Wald.,führt,1176.7227964878082,None,1178.8565176010131,None,1191.9235864162445,None,1193.3402740955353,None,./data/Subject_01/Session_03/Exp_data/2020_Jul_16_1858/rec_QA_run_03_block_001_trial_005.wav,,,,01,03,English,A2,True,False,True,False,False,True,True,True,True,True,True,True,No,3,No,No,No,No,2020_Jul_16_1858,nibs_stage_1,3.2.3,59.99267667521054,
3,0,3,0,1,0,1,0,6,0,6,0,,,,,,,,,,,,,,,,,,,,,,,,,Listen to the question and speak out your answer!,1196.4078359603882,None,1196.3730090618133,1198.4073810577393,Im Weltraum kann man keinen Ton hören.,hören,1197.7905745983123,1200.2073919773102,1200.5907345294952,None,1212.9914234161376,None,1214.4082291126251,None,./data/Subject_01/Session_03/Exp_data/2020_Jul_16_1858/rec_QA_run_03_block_001_trial_006.wav,,,,01,03,English,A2,True,False,True,False,False,True,True,True,True,True,True,True,No,3,No,No,No,No,2020_Jul_16_1858,nibs_stage_1,3.2.3,59.99267667521054,
3,0,3,0,1,0,1,0,7,0,7,0,,,,,,,,,,,,,,,,,,,,,,,,,Listen to the question and speak out your answer!,1217.4418189525604,None,1217.424102449417,1219.4417340755463,Mein älterer Bruder mag Rock spielen und hören.,hören,1218.8250334739685,None,1222.1251874446868,None,1233.9924974918365,None,1235.4092390537262,None,./data/Subject_01/Session_03/Exp_data/2020_Jul_16_1858/rec_QA_run_03_block_001_trial_007.wav,,,,01,03,English,A2,True,False,True,False,False,True,True,True,True,True,True,True,No,3,No,No,No,No,2020_Jul_16_1858,nibs_stage_1,3.2.3,59.99267667521054,
3,0,3,0,1,0,1,0,8,0,8,0,,,,,,,,,,,,,,,,,,,,,,,,,Listen to the question and speak out your answer!,1238.492887020111,None,1238.4585284233092,1240.4928290843964,"In der Therapie lernte er, mit Angst und Stress umzugehen.",umzugehen,1239.8428864955902,None,1243.7429965019226,None,1255.0436244487762,None,1256.460422039032,None,./data/Subject_01/Session_03/Exp_data/2020_Jul_16_1858/rec_QA_run_03_block_001_trial_008.wav,,,,01,03,English,A2,True,False,True,False,False,True,True,True,True,True,True,True,No,3,No,No,No,No,2020_Jul_16_1858,nibs_stage_1,3.2.3,59.99267667521054,
3,0,3,0,1,0,1,0,9,0,9,0,,,,,,,,,,,,,,,,,,,,,,,,,Listen to the question and speak out your answer!,1259.528655052185,None,1259.5096503734587,1261.5272901058197,"Es ist nicht erlaubt für alle Autos, vor dem Notausgang zu parken.",parken,1260.9104865074157,1264.994343996048,1265.3774645805358,None,1276.1114194869995,None,1277.5281209945679,None,./data/Subject_01/Session_03/Exp_data/2020_Jul_16_1858/rec_QA_run_03_block_001_trial_009.wav,,,,01,03,English,A2,True,False,True,False,False,True,True,True,True,True,True,True,No,3,No,No,No,No,2020_Jul_16_1858,nibs_stage_1,3.2.3,59.99267667521054,
3,0,3,0,1,0,1,0,10,0,10,0,,,,,,,,,,,,,,,,,,,,,,,,,Listen to the question and speak out your answer!,1280.6117029190063,None,1280.577510499954,1282.6116969585419,"Er merkte sofort, dass wir versuchten, ihn zu belügen.",merkte,1281.9616704463958,1285.4786109924316,1285.8954084396362,1286.9119420051575,1297.1624725341796,1298.1792991161346,1298.5791399478912,None,./data/Subject_01/Session_03/Exp_data/2020_Jul_16_1858/rec_QA_run_03_block_001_trial_010.wav,,,,01,03,English,A2,True,False,True,False,False,True,True,True,True,True,True,True,No,3,No,No,No,No,2020_Jul_16_1858,nibs_stage_1,3.2.3,59.99267667521054,
3,0,3,0,1,0,1,0,11,0,11,0,,,,,,,,,,,,,,,,,,,,,,,,,Listen to the question and speak out your answer!,1301.6633429527283,None,1301.6285175323485,1303.6628150939941,Ich habe gestern Abend mit meiner Mutter geredet.,geredet,1303.0461085319519,None,1306.3129594802856,None,1318.2470195770263,1319.2637479305267,1319.6636581420898,None,./data/Subject_01/Session_03/Exp_data/2020_Jul_16_1858/rec_QA_run_03_block_001_trial_011.wav,,,,01,03,English,A2,True,False,True,False,False,True,True,True,True,True,True,True,No,3,No,No,No,No,2020_Jul_16_1858,nibs_stage_1,3.2.3,59.99267667521054,
3,0,3,0,1,0,1,0,12,0,12,0,,,,,,,,,,,,,,,,,,,,,,,,,Listen to the question and speak out your answer!,1322.69726896286,None,1322.6629980564117,1324.6973979473114,Die Oper endet mit dem Tod des Helden.,endet,1324.0805535793304,1326.4307069778442,1326.8140266418457,None,1339.2813454151153,None,1340.6981370449066,None,./data/Subject_01/Session_03/Exp_data/2020_Jul_16_1858/rec_QA_run_03_block_001_trial_012.wav,,,,01,03,English,A2,True,False,True,False,False,True,True,True,True,True,True,True,No,3,No,No,No,No,2020_Jul_16_1858,nibs_stage_1,3.2.3,59.99267667521054,
3,0,3,0,1,0,1,0,13,0,13,0,,,,,,,,,,,,,,,,,,,,,,,,,Listen to the question and speak out your answer!,1343.733281135559,None,1343.7140604496,1345.7319440841675,Der Test dauert nur fünfzehn Minuten.,dauert,1345.115078496933,None,1347.9151525974273,None,1360.31580452919,None,1361.732535123825,None,./data/Subject_01/Session_03/Exp_data/2020_Jul_16_1858/rec_QA_run_03_block_001_trial_013.wav,,,,01,03,English,A2,True,False,True,False,False,True,True,True,True,True,True,True,No,3,No,No,No,No,2020_Jul_16_1858,nibs_stage_1,3.2.3,59.99267667521054,
3,0,3,0,1,0,1,0,14,0,14,0,,,,,,,,,,,,,,,,,,,,,,,,,Listen to the question and speak out your answer!,1364.799392938614,None,1364.7651849746703,1366.7994799613953,"In Monaten ohne Regen trocknet die Erde so aus, dass sie ganz staubig wird.",staubig,1366.182782459259,1370.899682044983,1371.2830384254455,None,1381.3836794376373,None,1382.8003211021423,None,./data/Subject_01/Session_03/Exp_data/2020_Jul_16_1858/rec_QA_run_03_block_001_trial_014.wav,,,,01,03,English,A2,True,False,True,False,False,True,True,True,True,True,True,True,No,3,No,No,No,No,2020_Jul_16_1858,nibs_stage_1,3.2.3,59.99267667521054,
3,0,3,0,1,0,1,0,15,0,15,0,,,,,,,,,,,,,,,,,,,,,,,,,Listen to the question and speak out your answer!,1385.850494146347,None,1385.8163184165953,1387.8506770133972,Die Absolventen feiern ihren erfolgreichen Abschluss an der Universität.,feiern,1387.2338674545288,None,1392.1341236114501,None,1402.4346685886383,None,1403.8515830039978,None,./data/Subject_01/Session_03/Exp_data/2020_Jul_16_1858/rec_QA_run_03_block_001_trial_015.wav,,,,01,03,English,A2,True,False,True,False,False,True,True,True,True,True,True,True,No,3,No,No,No,No,2020_Jul_16_1858,nibs_stage_1,3.2.3,59.99267667521054,
3,0,3,0,1,0,1,0,16,0,16,0,,,,,,,,,,,,,,,,,,,,,,,,,Listen to the question and speak out your answer!,1406.8866579532623,None,1406.8674704074858,1408.8850269317627,"Bevor man ein Haus baut, zeichnet der Architekt einen Plan.",zeichnet,1408.2683015346527,1411.8851699829102,1412.2685175418853,1413.2852520942688,1423.4690924167633,1424.4858510494232,1424.885854959488,None,./data/Subject_01/Session_03/Exp_data/2020_Jul_16_1858/rec_QA_run_03_block_001_trial_016.wav,,,,01,03,English,A2,True,False,True,False,False,True,True,True,True,True,True,True,No,3,No,No,No,No,2020_Jul_16_1858,nibs_stage_1,3.2.3,59.99267667521054,
3,0,3,0,1,0,1,0,17,0,17,0,,,,,,,,,,,,,,,,,,,,,,,,,Listen to the question and speak out your answer!,1427.953411102295,None,1427.9184900283813,1429.9527781009674,Ich will nicht mein ganzes Geld für ein neues Auto ausgeben.,ausgeben,1429.336348581314,1432.853194952011,1433.236276435852,None,1444.5370045185089,1445.5535929203033,1445.9536290168762,None,./data/Subject_01/Session_03/Exp_data/2020_Jul_16_1858/rec_QA_run_03_block_001_trial_017.wav,,,,01,03,English,A2,True,False,True,False,False,True,True,True,True,True,True,True,No,3,No,No,No,No,2020_Jul_16_1858,nibs_stage_1,3.2.3,59.99267667521054,
3,0,3,0,1,0,1,0,18,0,18,0,,,,,,,,,,,,,,,,,,,,,,,,,Listen to the question and speak out your answer!,1448.9877951145172,None,1448.9529160022735,1450.9872410297394,Ihre Kleider riechen nach Rauch.,riechen,1450.337178516388,1452.5206289291382,1452.903966474533,1453.9208400249481,1465.5379894256591,None,1466.9547600746155,None,./data/Subject_01/Session_03/Exp_data/2020_Jul_16_1858/rec_QA_run_03_block_001_trial_018.wav,,,,01,03,English,A2,True,False,True,False,False,True,True,True,True,True,True,True,No,3,No,No,No,No,2020_Jul_16_1858,nibs_stage_1,3.2.3,59.99267667521054,
3,0,3,0,1,0,1,0,19,0,19,0,,,,,,,,,,,,,,,,,,,,,,,,,Listen to the question and speak out your answer!,1470.0054769515991,None,1469.9874449729919,1472.0049841403961,Ich konnte die Lärmquelle finden.,finden,1471.3882666110992,None,1473.78841547966,None,1486.5723386287689,None,1487.9891419410706,None,./data/Subject_01/Session_03/Exp_data/2020_Jul_16_1858/rec_QA_run_03_block_001_trial_019.wav,,,,01,03,English,A2,True,False,True,False,False,True,True,True,True,True,True,True,No,3,No,No,No,No,2020_Jul_16_1858,nibs_stage_1,3.2.3,59.99267667521054,
3,0,3,0,1,0,1,0,20,0,20,0,,,,,,,,,,,,,,,,,,,,,,,,,Listen to the question and speak out your answer!,1491.056743144989,None,1491.0219200611114,1493.0560901165009,In diesem Geschäft kann man billig einkaufen.,einkaufen,1492.4060526371002,None,1495.3395274162292,None,1507.606866645813,1508.6235809326172,1509.0241429805756,None,./data/Subject_01/Session_03/Exp_data/2020_Jul_16_1858/rec_QA_run_03_block_001_trial_020.wav,,,,01,03,English,A2,True,False,True,False,False,True,True,True,True,True,True,True,No,3,No,No,No,No,2020_Jul_16_1858,nibs_stage_1,3.2.3,59.99267667521054,
3,0,3,0,1,0,1,0,21,0,21,0,,,,,,,,,,,,,,,,,,,,,,,,,Listen to the question and speak out your answer!,1512.0910711288452,None,1512.0562249183654,1514.0905289649963,Die Gäste gratulieren dem jungen Paar herzlich zur Hochzeit.,gratulieren,1513.4738154888153,None,1517.6406934738159,None,1528.674594449997,1529.6912989616394,1530.0913760662079,None,./data/Subject_01/Session_03/Exp_data/2020_Jul_16_1858/rec_QA_run_03_block_001_trial_021.wav,,,,01,03,English,A2,True,False,True,False,False,True,True,True,True,True,True,True,No,3,No,No,No,No,2020_Jul_16_1858,nibs_stage_1,3.2.3,59.99267667521054,
3,0,3,0,1,0,1,0,22,0,22,0,,,,,,,,,,,,,,,,,,,,,,,,,Listen to the question and speak out your answer!,1533.110394001007,None,1533.090562915802,1535.1082780361176,Du darfst diese Bücher aufeinander liegen.,liegen,1534.4916635036468,1536.9420111179352,1537.325069475174,None,1549.692424583435,None,1551.1091380119324,None,./data/Subject_01/Session_03/Exp_data/2020_Jul_16_1858/rec_QA_run_03_block_001_trial_022.wav,,,,01,03,English,A2,True,False,True,False,False,True,True,True,True,True,True,True,No,3,No,No,No,No,2020_Jul_16_1858,nibs_stage_1,3.2.3,59.99267667521054,
3,0,3,0,1,0,1,0,23,0,23,0,,,,,,,,,,,,,,,,,,,,,,,,,Listen to the question and speak out your answer!,1554.1766090393066,None,1554.1417799949645,1556.1760730743408,Diesen Irrtum musste er teuer bezahlen.,bezahlen,1555.5260255813598,None,1558.3261495113372,None,1570.7268164634704,None,1572.1435599327087,None,./data/Subject_01/Session_03/Exp_data/2020_Jul_16_1858/rec_QA_run_03_block_001_trial_023.wav,,,,01,03,English,A2,True,False,True,False,False,True,True,True,True,True,True,True,No,3,No,No,No,No,2020_Jul_16_1858,nibs_stage_1,3.2.3,59.99267667521054,
3,0,3,0,1,0,1,0,24,0,24,0,,,,,,,,,,,,,,,,,,,,,,,,,Listen to the question and speak out your answer!,1575.2110631465912,None,1575.1762610435485,1577.2104930877686,Wir müssen uns beeilen oder wir verpassen unseren Zug.,beeilen,1576.5937774658203,1579.943962097168,1580.3273134708404,None,1591.7948885440826,None,1593.2113070487976,None,./data/Subject_01/Session_03/Exp_data/2020_Jul_16_1858/rec_QA_run_03_block_001_trial_024.wav,,,,01,03,English,A2,True,False,True,False,False,True,True,True,True,True,True,True,No,3,No,No,No,No,2020_Jul_16_1858,nibs_stage_1,3.2.3,59.99267667521054,
3,0,3,0,1,0,1,0,,,,,,,,,,,,,,,,,,1597.2282140254974,None,,,,,,,,,,,,,,,,,,,,,,,,,,,,,01,03,English,A2,True,False,True,False,False,True,True,True,True,True,True,True,No,3,No,No,No,No,2020_Jul_16_1858,nibs_stage_1,3.2.3,59.99267667521054,
3,0,3,0,,,,,,,,,,,,,,,,,,,,,,,,,,,,,,,,,,,,,,,,,,,,,,,,,Please remain seated until further instruction via the earphone.,56.397634983062744,None,01,03,English,A2,True,False,True,False,False,True,True,True,True,True,True,True,No,3,No,No,No,No,2020_Jul_16_1858,nibs_stage_1,3.2.3,59.99267667521054,
