run.thisRepN,run.thisTrialN,run.thisN,run.thisIndex,artifact_trial.thisRepN,artifact_trial.thisTrialN,artifact_trial.thisN,artifact_trial.thisIndex,QA_block.thisRepN,QA_block.thisTrialN,QA_block.thisN,QA_block.thisIndex,QA_trial.thisRepN,QA_trial.thisTrialN,QA_trial.thisN,QA_trial.thisIndex,fade_in_text.text,fade_in_text.started,fade_in_text.stopped,Artifact_intro_title.started,Artifact_intro_title.stopped,Artifact_intro_text.text,Artifact_intro_text.started,Artifact_intro_text.stopped,Artifact_intro_audio.started,Artifact_intro_audio.stopped,Artifact_intro_cont.started,Artifact_intro_cont.stopped,Artifact_rec_text.text,Artifact_rec_text.started,Artifact_rec_text.stopped,Artifact_rec_beep_hint.started,Artifact_rec_beep_hint.stopped,Artifact_rec_action.started,Artifact_rec_action.stopped,Artifact_rec_beep_start.started,Artifact_rec_beep_start.stopped,Artifact_rec_recording.started,Artifact_rec_recording.stopped,Artifact_rec_beep_end.started,Artifact_rec_beep_end.stopped,Artifact_rec_break.started,Artifact_rec_break.stopped,RS_intro_title.started,RS_intro_title.stopped,RS_intro_text.text,RS_intro_text.started,RS_intro_text.stopped,RS_intro_audio.started,RS_intro_audio.stopped,RS_rec_text.text,RS_rec_text.started,RS_rec_text.stopped,Pause_cont.started,Pause_cont.stopped,QA_intro_title.started,QA_intro_title.stopped,QA_intro_text.text,QA_intro_text.started,QA_intro_text.stopped,QA_intro_audio.started,QA_intro_audio.stopped,QA_intro_cont.started,QA_intro_cont.stopped,QA_rec_text.text,QA_rec_text.started,QA_rec_text.stopped,QA_rec_beep_hint.started,QA_rec_beep_hint.stopped,QA_rec_question.sen_text,QA_rec_question.cen_text,QA_rec_question.started,QA_rec_question.stopped,QA_rec_beep_start.started,QA_rec_beep_start.stopped,QA_rec_beep_end.started,QA_rec_beep_end.stopped,QA_rec_break.started,QA_rec_break.stopped,filename,fade_out_text.text,fade_out_text.started,fade_out_text.stopped,participant,session,First language,German level,Full_screen,Instruction,Intro,Artifact,Cali_pre,Fade_in_out,Artifact_within,Resting_State,QA,Pause,Cali_post,End,Breakpoint_Cali_pre_trial,Breakpoint_Run,Breakpoint_RS_block,Breakpoint_QA_block,Breakpoint_QA_trial,Breakpoint_Cali_post_trial,date,expName,psychopyVersion,frameRate,
2,0,2,0,0,0,0,0,,,,,,,,,Please remain seated until further instruction via the earphone.,160.2227427959442,None,162.25619983673096,189.27401089668274,"  - Task: Artifacts collection   
  - Please follow audio instruction              
",162.25619983673096,189.27401089668274,162.2384468793869,None,188.64074993133545,None,,191.74105286598206,None,191.72307603359224,193.72446990013123,193.1078466653824,None,196.50795357227327,None,197.90802757740022,207.90857195854187,208.30849068164827,None,209.70862793922424,210.7088098526001,,,,,,,,,,,,,,,,,,,,,,,,,,,,,,,,,,,,,,,,,01,03,English,A2,True,False,True,False,False,True,True,True,True,True,True,True,No,2,No,No,No,No,2020_Jul_16_1819,nibs_stage_1,3.2.3,59.995937622479246,
2,0,2,0,1,0,1,0,,,,,,,,,,,,,,,,,,,,,,213.75902581214905,None,213.74109904766084,215.74227380752563,215.12557260990144,None,218.5264086008072,None,219.92596571445466,229.9263288974762,230.32633559703828,None,231.72641491889954,232.72647190093994,,,,,,,,,,,,,,,,,,,,,,,,,,,,,,,,,,,,,,,,,01,03,English,A2,True,False,True,False,False,True,True,True,True,True,True,True,No,2,No,No,No,No,2020_Jul_16_1819,nibs_stage_1,3.2.3,59.995937622479246,
2,0,2,0,2,0,2,0,,,,,,,,,,,,,,,,,,,,,,235.77728390693665,None,235.7588819742203,237.76023697853088,237.14356367588044,None,240.54355161190034,None,241.9438616514206,251.94412684440613,252.3441507101059,None,253.7442648410797,254.74433183670044,,,,,,,,,,,,,,,,,,,,,,,,,,,,,,,,,,,,,,,,,01,03,English,A2,True,False,True,False,False,True,True,True,True,True,True,True,No,2,No,No,No,No,2020_Jul_16_1819,nibs_stage_1,3.2.3,59.995937622479246,
2,0,2,0,3,0,3,0,,,,,,,,,,,,,,,,,,,,,,257.79443883895874,None,257.7767690896988,259.77789187431335,259.16114966869355,None,262.5615135908127,None,263.96140854358674,273.96184277534485,274.36193363666536,None,275.7620139122009,276.7619888782501,,,,,,,,,,,,,,,,,,,,,,,,,,,,,,,,,,,,,,,,,01,03,English,A2,True,False,True,False,False,True,True,True,True,True,True,True,No,2,No,No,No,No,2020_Jul_16_1819,nibs_stage_1,3.2.3,59.995937622479246,
2,0,2,0,4,0,4,0,,,,,,,,,,,,,,,,,,,,,,279.8123199939728,None,279.79451196193696,281.7957139015198,281.17898361682893,None,284.5791246175766,None,285.9793695688248,295.9797189235687,296.37973563671113,297.37979793548584,297.7801368236542,298.7798218727112,,,,,,,,,,,,,,,,,,,,,,,,,,,,,,,,,,,,,,,,,01,03,English,A2,True,False,True,False,False,True,True,True,True,True,True,True,No,2,No,No,No,No,2020_Jul_16_1819,nibs_stage_1,3.2.3,59.995937622479246,
2,0,2,0,5,0,5,0,,,,,,,,,,,,,,,,,,,,,,301.8307008743286,None,301.81229798793794,303.8139679431915,303.19693462848664,None,306.5969444990158,None,307.99700157642366,317.9975368976593,318.3975877046585,None,319.79803681373596,320.7976830005646,,,,,,,,,,,,,,,,,,,,,,,,,,,,,,,,,,,,,,,,,01,03,English,A2,True,False,True,False,False,True,True,True,True,True,True,True,No,2,No,No,No,No,2020_Jul_16_1819,nibs_stage_1,3.2.3,59.995937622479246,
2,0,2,0,6,0,6,0,,,,,,,,,,,,,,,,,,,,,,323.84830594062805,None,323.8301090478897,325.8310468196869,325.21434061527253,None,328.6144325017929,None,330.0145825624466,340.0150239467621,340.4150795221329,341.41517782211304,341.8152267932892,342.81515192985535,,,,,,,,,,,,,,,,,,,,,,,,,,,,,,,,,,,,,,,,,01,03,English,A2,True,False,True,False,False,True,True,True,True,True,True,True,No,2,No,No,No,No,2020_Jul_16_1819,nibs_stage_1,3.2.3,59.995937622479246,
2,0,2,0,7,0,7,0,,,,,,,,,,,,,,,,,,,,,,345.8655059337616,None,345.84766190052034,347.84941482543945,347.2321175813675,350.2323739528656,350.6323155641556,None,352.0323557138443,362.03289699554443,362.43289749622346,363.43307185173035,363.83301877975464,364.833034992218,,,,,,,,,,,,,,,,,,,,,,,,,,,,,,,,,,,,,,,,,01,03,English,A2,True,False,True,False,False,True,True,True,True,True,True,True,No,2,No,No,No,No,2020_Jul_16_1819,nibs_stage_1,3.2.3,59.995937622479246,
2,0,2,0,8,0,8,0,,,,,,,,,,,,,,,,,,,,,,367.88323187828064,None,367.8654689073563,369.86663579940796,369.24984352588655,372.2505929470062,372.6501626253128,None,374.0500916719437,384.0510230064392,384.4507235765457,385.4508948326111,385.8507149219513,386.8508458137512,,,,,,,,,,,,,,,,,,,,,,,,,,,,,,,,,,,,,,,,,01,03,English,A2,True,False,True,False,False,True,True,True,True,True,True,True,No,2,No,No,No,No,2020_Jul_16_1819,nibs_stage_1,3.2.3,59.995937622479246,
2,0,2,0,9,0,9,0,,,,,,,,,,,,,,,,,,,,,,389.9010889530182,None,389.88344995975496,391.8844609260559,391.2677315950394,394.2678117752075,394.6679987192154,None,396.06797950267793,406.06841588020325,406.4685985326767,None,407.8685739040375,408.868852853775,,,,,,,,,,,,,,,,,,,,,,,,,,,,,,,,,,,,,,,,,01,03,English,A2,True,False,True,False,False,True,True,True,True,True,True,True,No,2,No,No,No,No,2020_Jul_16_1819,nibs_stage_1,3.2.3,59.995937622479246,
2,0,2,0,10,0,10,0,,,,,,,,,,,,,,,,,,,,,,411.91963291168213,None,411.9010938882828,413.9022469520569,413.2856516122818,None,416.68573157787324,None,418.0857655286789,428.087299823761,428.48682658672334,429.4866478443146,429.88665199279785,430.8865888118744,,,,,,,,,,,,,,,,,,,,,,,,,,,,,,,,,,,,,,,,,01,03,English,A2,True,False,True,False,False,True,True,True,True,True,True,True,No,2,No,No,No,No,2020_Jul_16_1819,nibs_stage_1,3.2.3,59.995937622479246,
2,0,2,0,11,0,11,0,,,,,,,,,,,,,,,,,,,,,,433.93688583374023,None,433.9190868616104,435.92027592658997,435.3037616491318,None,438.70373766422273,None,440.1037575483322,450.10471987724304,450.50469558238984,451.504921913147,451.90504598617554,452.9044518470764,,,,,,,,,,,,,,,,,,,,,,,,,,,,,,,,,,,,,,,,,01,03,English,A2,True,False,True,False,False,True,True,True,True,True,True,True,No,2,No,No,No,No,2020_Jul_16_1819,nibs_stage_1,3.2.3,59.995937622479246,
2,0,2,0,12,0,12,0,,,,,,,,,,,,,,,,,,,,,,455.9547019004822,None,455.9368740797043,457.9381058216095,457.3212815999985,460.32145595550537,460.72147052288057,None,462.1215855360031,472.122318983078,472.5224136590958,473.5222158432007,473.92229986190796,474.92264890670776,,,,,,,,,,,,,,,,,,,,,,,,,,,,,,,,,,,,,,,,,01,03,English,A2,True,False,True,False,False,True,True,True,True,True,True,True,No,2,No,No,No,No,2020_Jul_16_1819,nibs_stage_1,3.2.3,59.995937622479246,
2,0,2,0,13,0,13,0,,,,,,,,,,,,,,,,,,,,,,477.97236800193787,None,477.95471303462983,479.9558689594269,479.33926050662996,None,482.73932163715364,None,484.139580655098,494.13996386528015,494.5399436235428,None,495.94006395339966,496.94009590148926,,,,,,,,,,,,,,,,,,,,,,,,,,,,,,,,,,,,,,,,,01,03,English,A2,True,False,True,False,False,True,True,True,True,True,True,True,No,2,No,No,No,No,2020_Jul_16_1819,nibs_stage_1,3.2.3,59.995937622479246,
2,0,2,0,14,0,14,0,,,,,,,,,,,,,,,,,,,,,,499.9901599884033,None,499.9725450754166,501.9739079475403,501.3573345422745,None,504.7576426744461,505.7573618888855,506.1573867082596,516.1581659317017,516.5580987215042,517.5580158233643,517.9580569267273,518.9578678607941,,,,,,,,,,,,,,,,,,,,,,,,,,,,,,,,,,,,,,,,,01,03,English,A2,True,False,True,False,False,True,True,True,True,True,True,True,No,2,No,No,No,No,2020_Jul_16_1819,nibs_stage_1,3.2.3,59.995937622479246,
2,0,2,0,,,,,0,0,0,0,0,0,0,0,,,,,,,,,,,,,,,,,,,,,,,,,,,,729.4188058376312,None," - Task: Keep seated and relaxed with either      
             opening or closing eyes                  
 - Beep sound with decreasing pitch: Block finish 
",729.4188058376312,None,729.4010017871856,None,"Please keep relaxed and close your eyes.
",752.4530129432678,932.4626619815826,935.829164981842,None,951.1300489902496,None," - Task: Listen to the question& Speak out answer 
 - Melodious beep sound: Trial start              
 - Silent sound (blank): censored word            
 - Beep sound with increasing pitch: Rec. start   
 - Beep sound with decreasing pitch: Rec. finish  
",951.1300489902496,None,951.1116456270217,None,990.5152549743652,None,Listen to the question and speak out your answer!,993.5821199417114,None,993.5637991666794,995.5655038356781,"Da hier nur sehr wenige Parkplätze sind, nur Anwohner dürfen in dieser Straße parken.",parken,994.9654945611953,None,1000.5158695459365,None,1010.1663107156753,None,1011.5664269924164,1012.5664579868317,./data/Subject_01/Session_03/Exp_data/2020_Jul_16_1819/rec_QA_run_02_block_000_trial_000.wav,,,,01,03,English,A2,True,False,True,False,False,True,True,True,True,True,True,True,No,2,No,No,No,No,2020_Jul_16_1819,nibs_stage_1,3.2.3,59.995937622479246,
2,0,2,0,,,,,0,0,0,0,1,0,1,0,,,,,,,,,,,,,,,,,,,,,,,,,,,,,,,,,,,,,,,,,,,,,,,,,Listen to the question and speak out your answer!,1014.617595911026,None,1014.5988207817077,1016.6333889961243,Die Meere sollte man nicht so leer fischen.,fischen,1015.9999145746231,1018.3335118293762,1018.7167176485061,None,1031.1840416669845,1032.2006919384003,1032.6008319854736,None,./data/Subject_01/Session_03/Exp_data/2020_Jul_16_1819/rec_QA_run_02_block_000_trial_001.wav,,,,01,03,English,A2,True,False,True,False,False,True,True,True,True,True,True,True,No,2,No,No,No,No,2020_Jul_16_1819,nibs_stage_1,3.2.3,59.995937622479246,
2,0,2,0,,,,,0,0,0,0,2,0,2,0,,,,,,,,,,,,,,,,,,,,,,,,,,,,,,,,,,,,,,,,,,,,,,,,,Listen to the question and speak out your answer!,1035.6682238578796,None,1035.6331556797027,1037.6677107810974,"Das Mädchen wollte etwas sagen, also hob sie ihre Hand.",sagen,1037.0509986162185,1040.5346229076385,1040.9178835630416,None,1052.2351207017898,1053.2518467903137,1053.651879787445,None,./data/Subject_01/Session_03/Exp_data/2020_Jul_16_1819/rec_QA_run_02_block_000_trial_002.wav,,,,01,03,English,A2,True,False,True,False,False,True,True,True,True,True,True,True,No,2,No,No,No,No,2020_Jul_16_1819,nibs_stage_1,3.2.3,59.995937622479246,
2,0,2,0,,,,,0,0,0,0,3,0,3,0,,,,,,,,,,,,,,,,,,,,,,,,,,,,,,,,,,,,,,,,,,,,,,,,,Listen to the question and speak out your answer!,1056.7030248641968,None,1056.6842716693877,1058.7021207809448,Lange dünne Nudeln nennt man Spaghetti.,nennt,1058.0854186296463,None,1060.9188834905624,None,1073.2861027002334,None,1074.702970981598,None,./data/Subject_01/Session_03/Exp_data/2020_Jul_16_1819/rec_QA_run_02_block_000_trial_003.wav,,,,01,03,English,A2,True,False,True,False,False,True,True,True,True,True,True,True,No,2,No,No,No,No,2020_Jul_16_1819,nibs_stage_1,3.2.3,59.995937622479246,
2,0,2,0,,,,,0,0,0,0,4,0,4,0,,,,,,,,,,,,,,,,,,,,,,,,,,,,,,,,,,,,,,,,,,,,,,,,,Listen to the question and speak out your answer!,1077.770061969757,None,1077.7519324064253,1079.7698709964752,"Er muss arbeiten, um seine beiden Kinder großzuziehen.",arbeiten,1079.1531457185745,1082.4366779327393,1082.7867047071456,None,1094.3539435148239,None,1095.770709991455,None,./data/Subject_01/Session_03/Exp_data/2020_Jul_16_1819/rec_QA_run_02_block_000_trial_004.wav,,,,01,03,English,A2,True,False,True,False,False,True,True,True,True,True,True,True,No,2,No,No,No,No,2020_Jul_16_1819,nibs_stage_1,3.2.3,59.995937622479246,
2,0,2,0,,,,,0,0,0,0,5,0,5,0,,,,,,,,,,,,,,,,,,,,,,,,,,,,,,,,,,,,,,,,,,,,,,,,,Listen to the question and speak out your answer!,1098.8377499580383,None,1098.8197703599928,1100.8376388549805,Die Studenten müssen sich für den Kurs anmelden.,anmelden,1100.22091858387,1103.038020849228,1103.387760567665,1104.404450893402,1115.4217025518417,None,1116.838458776474,None,./data/Subject_01/Session_03/Exp_data/2020_Jul_16_1819/rec_QA_run_02_block_000_trial_005.wav,,,,01,03,English,A2,True,False,True,False,False,True,True,True,True,True,True,True,No,2,No,No,No,No,2020_Jul_16_1819,nibs_stage_1,3.2.3,59.995937622479246,
2,0,2,0,,,,,0,0,0,0,6,0,6,0,,,,,,,,,,,,,,,,,,,,,,,,,,,,,,,,,,,,,,,,,,,,,,,,,Listen to the question and speak out your answer!,1119.8902399539948,None,1119.8709295749663,1121.8887159824371,Das neue Teammitglied wurde über die Situation informiert.,informiert,1121.2719215631485,1124.9557847976685,1125.3388876199722,None,1136.4728135347366,1137.4895129203796,1137.8895409107208,None,./data/Subject_01/Session_03/Exp_data/2020_Jul_16_1819/rec_QA_run_02_block_000_trial_006.wav,,,,01,03,English,A2,True,False,True,False,False,True,True,True,True,True,True,True,No,2,No,No,No,No,2020_Jul_16_1819,nibs_stage_1,3.2.3,59.995937622479246,
2,0,2,0,,,,,0,0,0,0,7,0,7,0,,,,,,,,,,,,,,,,,,,,,,,,,,,,,,,,,,,,,,,,,,,,,,,,,Listen to the question and speak out your answer!,1140.9569599628448,None,1140.9386213064192,1142.9564499855042,Der Sturm entlaubte alle Bäume in unserem Garten.,entlaubte,1142.339768576622,None,1145.939959692955,1146.95667386055,1157.5405525445938,None,1158.9572899341583,None,./data/Subject_01/Session_03/Exp_data/2020_Jul_16_1819/rec_QA_run_02_block_000_trial_007.wav,,,,01,03,English,A2,True,False,True,False,False,True,True,True,True,True,True,True,No,2,No,No,No,No,2020_Jul_16_1819,nibs_stage_1,3.2.3,59.995937622479246,
2,0,2,0,,,,,0,0,0,0,8,0,8,0,,,,,,,,,,,,,,,,,,,,,,,,,,,,,,,,,,,,,,,,,,,,,,,,,Listen to the question and speak out your answer!,1161.9908769130707,None,1161.9563776016234,1163.9909098148346,"Um die Prüfung zu bestehen, hat er viel gelernt.",gelernt,1163.3741025209426,1166.324346780777,1166.7076865911483,None,1178.5749925851821,None,1179.9917588233948,None,./data/Subject_01/Session_03/Exp_data/2020_Jul_16_1819/rec_QA_run_02_block_000_trial_008.wav,,,,01,03,English,A2,True,False,True,False,False,True,True,True,True,True,True,True,No,2,No,No,No,No,2020_Jul_16_1819,nibs_stage_1,3.2.3,59.995937622479246,
2,0,2,0,,,,,0,0,0,0,9,0,9,0,,,,,,,,,,,,,,,,,,,,,,,,,,,,,,,,,,,,,,,,,,,,,,,,,Listen to the question and speak out your answer!,1183.025311946869,None,1182.990831708908,1185.0253269672394,Er hat seine Katze oft mit Fisch gefüttert.,gefüttert,1184.4086186170578,1186.8921048641205,1187.2754894971847,None,1199.6094345331192,None,1201.0261809825897,None,./data/Subject_01/Session_03/Exp_data/2020_Jul_16_1819/rec_QA_run_02_block_000_trial_009.wav,,,,01,03,English,A2,True,False,True,False,False,True,True,True,True,True,True,True,No,2,No,No,No,No,2020_Jul_16_1819,nibs_stage_1,3.2.3,59.995937622479246,
2,0,2,0,,,,,0,0,0,0,10,0,10,0,,,,,,,,,,,,,,,,,,,,,,,,,,,,,,,,,,,,,,,,,,,,,,,,,Listen to the question and speak out your answer!,1204.0434818267822,None,1204.0252567291259,1206.0431079864502,"Mein Ziel ist, in der Prüfung gute Ergebnisse zu bekommen.",bekommen,1205.4263815164566,1209.043250799179,1209.4265996694564,None,1220.6272227048873,None,1222.0439310073853,None,./data/Subject_01/Session_03/Exp_data/2020_Jul_16_1819/rec_QA_run_02_block_000_trial_010.wav,,,,01,03,English,A2,True,False,True,False,False,True,True,True,True,True,True,True,No,2,No,No,No,No,2020_Jul_16_1819,nibs_stage_1,3.2.3,59.995937622479246,
2,0,2,0,,,,,0,0,0,0,11,0,11,0,,,,,,,,,,,,,,,,,,,,,,,,,,,,,,,,,,,,,,,,,,,,,,,,,Listen to the question and speak out your answer!,1225.1110999584198,None,1225.0930114030837,1227.1110498905182,"Wir entschieden uns dafür, mit dem Flugzeug nach Stockholm zu fliegen.",fliegen,1226.4608275175094,None,1231.094393658638,None,1241.6782745599746,1242.6949899196625,1243.095027923584,None,./data/Subject_01/Session_03/Exp_data/2020_Jul_16_1819/rec_QA_run_02_block_000_trial_011.wav,,,,01,03,English,A2,True,False,True,False,False,True,True,True,True,True,True,True,No,2,No,No,No,No,2020_Jul_16_1819,nibs_stage_1,3.2.3,59.995937622479246,
2,0,2,0,,,,,0,0,0,0,12,0,12,0,,,,,,,,,,,,,,,,,,,,,,,,,,,,,,,,,,,,,,,,,,,,,,,,,Listen to the question and speak out your answer!,1246.161947965622,None,1246.127449607849,1248.162036895752,"Habt ihr eine Ahnung, wie der Unfall passiert ist?",passiert,1247.5453466653823,1250.6288449764252,1251.0121795415878,None,1262.7461694955825,None,1264.1629178524017,None,./data/Subject_01/Session_03/Exp_data/2020_Jul_16_1819/rec_QA_run_02_block_000_trial_012.wav,,,,01,03,English,A2,True,False,True,False,False,True,True,True,True,True,True,True,No,2,No,No,No,No,2020_Jul_16_1819,nibs_stage_1,3.2.3,59.995937622479246,
2,0,2,0,,,,,0,0,0,0,13,0,13,0,,,,,,,,,,,,,,,,,,,,,,,,,,,,,,,,,,,,,,,,,,,,,,,,,Listen to the question and speak out your answer!,1267.196977853775,None,1267.1619406700133,1269.196475982666,Bei der Ausreise wird der Pass kontrolliert.,kontrolliert,1268.5796815633773,None,1271.4799136400222,1272.4966688156128,1283.7805916547775,None,1285.1973078250885,None,./data/Subject_01/Session_03/Exp_data/2020_Jul_16_1819/rec_QA_run_02_block_000_trial_013.wav,,,,01,03,English,A2,True,False,True,False,False,True,True,True,True,True,True,True,No,2,No,No,No,No,2020_Jul_16_1819,nibs_stage_1,3.2.3,59.995937622479246,
2,0,2,0,,,,,0,0,0,0,14,0,14,0,,,,,,,,,,,,,,,,,,,,,,,,,,,,,,,,,,,,,,,,,,,,,,,,,Listen to the question and speak out your answer!,1288.231381893158,None,1288.1963876247405,1290.230899810791,Das Auge ermöglicht Tieren das Sehen.,ermöglicht,1289.614194560051,None,1292.3810116529464,None,1304.8149065256118,None,1306.2316529750824,None,./data/Subject_01/Session_03/Exp_data/2020_Jul_16_1819/rec_QA_run_02_block_000_trial_014.wav,,,,01,03,English,A2,True,False,True,False,False,True,True,True,True,True,True,True,No,2,No,No,No,No,2020_Jul_16_1819,nibs_stage_1,3.2.3,59.995937622479246,
2,0,2,0,,,,,0,0,0,0,15,0,15,0,,,,,,,,,,,,,,,,,,,,,,,,,,,,,,,,,,,,,,,,,,,,,,,,,Listen to the question and speak out your answer!,1309.2484798431396,None,1309.2307077407836,1311.2485709190369,Alex duscht morgens gerne im Badezimmer.,duscht,1310.631866621971,1313.248694896698,1313.6320506811142,None,1325.832646536827,None,1327.2494428157806,None,./data/Subject_01/Session_03/Exp_data/2020_Jul_16_1819/rec_QA_run_02_block_000_trial_015.wav,,,,01,03,English,A2,True,False,True,False,False,True,True,True,True,True,True,True,No,2,No,No,No,No,2020_Jul_16_1819,nibs_stage_1,3.2.3,59.995937622479246,
2,0,2,0,,,,,0,0,0,0,16,0,16,0,,,,,,,,,,,,,,,,,,,,,,,,,,,,,,,,,,,,,,,,,,,,,,,,,Listen to the question and speak out your answer!,1330.3004808425903,None,1330.2818327903747,1332.2996709346771,Als ein vertrauenswürdiger Mann hält Sam immer sein Versprechen.,hält,1331.6829706907272,None,1335.8498586893081,None,1346.883754658699,1347.900489807129,1348.3005027770996,None,./data/Subject_01/Session_03/Exp_data/2020_Jul_16_1819/rec_QA_run_02_block_000_trial_016.wav,,,,01,03,English,A2,True,False,True,False,False,True,True,True,True,True,True,True,No,2,No,No,No,No,2020_Jul_16_1819,nibs_stage_1,3.2.3,59.995937622479246,
2,0,2,0,,,,,0,0,0,0,17,0,17,0,,,,,,,,,,,,,,,,,,,,,,,,,,,,,,,,,,,,,,,,,,,,,,,,,Listen to the question and speak out your answer!,1351.3679809570312,None,1351.3329246997832,1353.3674409389496,Was wünschst du dir zum Geburtstag?,wünschst,1352.7507316350936,None,1355.3176194906234,1356.3342938423157,1367.9515115499496,None,1369.3682789802551,None,./data/Subject_01/Session_03/Exp_data/2020_Jul_16_1819/rec_QA_run_02_block_000_trial_017.wav,,,,01,03,English,A2,True,False,True,False,False,True,True,True,True,True,True,True,No,2,No,No,No,No,2020_Jul_16_1819,nibs_stage_1,3.2.3,59.995937622479246,
2,0,2,0,,,,,0,0,0,0,18,0,18,0,,,,,,,,,,,,,,,,,,,,,,,,,,,,,,,,,,,,,,,,,,,,,,,,,Listen to the question and speak out your answer!,1372.3871488571167,None,1372.3673716545104,1374.3851838111877,Mama hat einen Kuchen gebacken.,gebacken,1373.768488574028,1375.7522089481354,1376.135279583931,None,1388.9693044900894,None,1390.386041879654,None,./data/Subject_01/Session_03/Exp_data/2020_Jul_16_1819/rec_QA_run_02_block_000_trial_018.wav,,,,01,03,English,A2,True,False,True,False,False,True,True,True,True,True,True,True,No,2,No,No,No,No,2020_Jul_16_1819,nibs_stage_1,3.2.3,59.995937622479246,
2,0,2,0,,,,,0,0,0,0,19,0,19,0,,,,,,,,,,,,,,,,,,,,,,,,,,,,,,,,,,,,,,,,,,,,,,,,,Listen to the question and speak out your answer!,1393.4364488124847,None,1393.4184556961059,1395.4362947940826,In diesem Krankenhaus werden viele Patienten behandelt.,behandelt,1394.8195895433425,None,1398.6865395784378,1399.7031888961792,1410.0203825712204,None,1411.437136888504,None,./data/Subject_01/Session_03/Exp_data/2020_Jul_16_1819/rec_QA_run_02_block_000_trial_019.wav,,,,01,03,English,A2,True,False,True,False,False,True,True,True,True,True,True,True,No,2,No,No,No,No,2020_Jul_16_1819,nibs_stage_1,3.2.3,59.995937622479246,
2,0,2,0,,,,,0,0,0,0,20,0,20,0,,,,,,,,,,,,,,,,,,,,,,,,,,,,,,,,,,,,,,,,,,,,,,,,,Listen to the question and speak out your answer!,1414.5050280094147,None,1414.486327433586,1416.5040609836578,Sie holte ihre Einkäufe aus dem Korb.,holte,1415.8872606039047,1418.4042608737946,1418.7874855279922,None,1431.0881535291671,None,1432.5048818588257,None,./data/Subject_01/Session_03/Exp_data/2020_Jul_16_1819/rec_QA_run_02_block_000_trial_020.wav,,,,01,03,English,A2,True,False,True,False,False,True,True,True,True,True,True,True,No,2,No,No,No,No,2020_Jul_16_1819,nibs_stage_1,3.2.3,59.995937622479246,
2,0,2,0,,,,,0,0,0,0,21,0,21,0,,,,,,,,,,,,,,,,,,,,,,,,,,,,,,,,,,,,,,,,,,,,,,,,,Listen to the question and speak out your answer!,1435.572293996811,None,1435.5539863348006,1437.5717949867249,Ich möchte einen Tisch für das Abendessen reservieren.,reservieren,1436.9551305055618,None,1440.4886276006698,1441.5053489208221,1452.155921626091,None,1453.5727059841156,None,./data/Subject_01/Session_03/Exp_data/2020_Jul_16_1819/rec_QA_run_02_block_000_trial_021.wav,,,,01,03,English,A2,True,False,True,False,False,True,True,True,True,True,True,True,No,2,No,No,No,No,2020_Jul_16_1819,nibs_stage_1,3.2.3,59.995937622479246,
2,0,2,0,,,,,0,0,0,0,22,0,22,0,,,,,,,,,,,,,,,,,,,,,,,,,,,,,,,,,,,,,,,,,,,,,,,,,Listen to the question and speak out your answer!,1456.5895898342133,None,1456.5717307090758,1458.5895898342133,Ich nehme zwei Bücher aus dem Regal.,nehme,1457.9729675531387,1460.3563358783722,1460.7396775960922,1461.7564058303833,1473.1736416101455,1474.1903989315033,1474.5905089378357,None,./data/Subject_01/Session_03/Exp_data/2020_Jul_16_1819/rec_QA_run_02_block_000_trial_022.wav,,,,01,03,English,A2,True,False,True,False,False,True,True,True,True,True,True,True,No,2,No,No,No,No,2020_Jul_16_1819,nibs_stage_1,3.2.3,59.995937622479246,
2,0,2,0,,,,,0,0,0,0,23,0,23,0,,,,,,,,,,,,,,,,,,,,,,,,,,,,,,,,,,,,,,,,,,,,,,,,,Listen to the question and speak out your answer!,1477.6572668552399,None,1477.6228188037871,1479.6574079990387,Es besteht eine starke Verbindung zwischen Musik und Kunst.,besteht,1479.0406286001205,None,1483.007420706749,None,1494.241462635994,1495.258155822754,1495.65815782547,None,./data/Subject_01/Session_03/Exp_data/2020_Jul_16_1819/rec_QA_run_02_block_000_trial_023.wav,,,,01,03,English,A2,True,False,True,False,False,True,True,True,True,True,True,True,No,2,No,No,No,No,2020_Jul_16_1819,nibs_stage_1,3.2.3,59.995937622479246,
2,0,2,0,,,,,0,0,0,0,24,0,24,0,,,,,,,,,,,,,,,,,,,,,,,,,,,,,,,,,,,,,,,,,,,,,,,,,Listen to the question and speak out your answer!,1498.6922318935394,None,1498.6572576522826,1500.691764831543,Flora hat Musik studiert und dirigiert jetzt das Orchester.,studiert,1500.075052666664,None,1504.375375676155,None,1515.2758816957473,None,1516.6925067901611,None,./data/Subject_01/Session_03/Exp_data/2020_Jul_16_1819/rec_QA_run_02_block_000_trial_024.wav,,,,01,03,English,A2,True,False,True,False,False,True,True,True,True,True,True,True,No,2,No,No,No,No,2020_Jul_16_1819,nibs_stage_1,3.2.3,59.995937622479246,
2,0,2,0,,,,,0,0,0,0,,,,,,,,,,,,,,,,,,,,,,,,,,,,,,,,,,,,,,,,,,1520.709571838379,None,,,,,,,,,,,,,,,,,,,,,,,,,,,,,01,03,English,A2,True,False,True,False,False,True,True,True,True,True,True,True,No,2,No,No,No,No,2020_Jul_16_1819,nibs_stage_1,3.2.3,59.995937622479246,
2,0,2,0,,,,,1,0,1,0,0,0,0,0,,,,,,,,,,,,,,,,,,,,,,,,,,,,,,,,,,,,,,,,,,,,,,,,,Listen to the question and speak out your answer!,1534.8603129386902,None,1534.8418888807296,1536.8603279590607,"Die Eisberge lösen sich auf, und der Wasserpegel steigt.",steigt,1536.2437025785446,None,1540.2104787111282,None,1551.4444605588913,None,1552.8611378669739,None,./data/Subject_01/Session_03/Exp_data/2020_Jul_16_1819/rec_QA_run_02_block_001_trial_000.wav,,,,01,03,English,A2,True,False,True,False,False,True,True,True,True,True,True,True,No,2,No,No,No,No,2020_Jul_16_1819,nibs_stage_1,3.2.3,59.995937622479246,
2,0,2,0,,,,,1,0,1,0,1,0,1,0,,,,,,,,,,,,,,,,,,,,,,,,,,,,,,,,,,,,,,,,,,,,,,,,,Listen to the question and speak out your answer!,1555.9279918670654,None,1555.9103114843367,1557.9281477928162,Du solltest deiner Geliebten Blumen zum Geburtstag schenken.,schenken,1557.311455655098,1560.79505777359,1561.178328680992,1562.1950418949127,1572.512258696556,1573.5289509296417,1573.9289438724518,None,./data/Subject_01/Session_03/Exp_data/2020_Jul_16_1819/rec_QA_run_02_block_001_trial_001.wav,,,,01,03,English,A2,True,False,True,False,False,True,True,True,True,True,True,True,No,2,No,No,No,No,2020_Jul_16_1819,nibs_stage_1,3.2.3,59.995937622479246,
2,0,2,0,,,,,1,0,1,0,2,0,2,0,,,,,,,,,,,,,,,,,,,,,,,,,,,,,,,,,,,,,,,,,,,,,,,,,Listen to the question and speak out your answer!,1576.9957859516144,None,1576.9614327907561,1578.9959168434143,Arbeitslos-sein bedeutet: man hat keinen Arbeits-Platz.,bedeutet,1578.3791956186294,1581.7960538864136,1582.1795117139816,None,1593.5799206972122,1594.5967338085175,1594.9967608451843,None,./data/Subject_01/Session_03/Exp_data/2020_Jul_16_1819/rec_QA_run_02_block_001_trial_002.wav,,,,01,03,English,A2,True,False,True,False,False,True,True,True,True,True,True,True,No,2,No,No,No,No,2020_Jul_16_1819,nibs_stage_1,3.2.3,59.995937622479246,
2,0,2,0,,,,,1,0,1,0,3,0,3,0,,,,,,,,,,,,,,,,,,,,,,,,,,,,,,,,,,,,,,,,,,,,,,,,,Listen to the question and speak out your answer!,1598.0304038524628,None,1598.0124004125594,1600.030247926712,"Der Arzt sagt, mein Knie ist in Ordnung, aber meine Beine scheinen gebrochen zu sein.",scheinen,1599.413541483879,None,1605.0804955244064,None,1614.6143376111984,None,1616.031086921692,None,./data/Subject_01/Session_03/Exp_data/2020_Jul_16_1819/rec_QA_run_02_block_001_trial_003.wav,,,,01,03,English,A2,True,False,True,False,False,True,True,True,True,True,True,True,No,2,No,No,No,No,2020_Jul_16_1819,nibs_stage_1,3.2.3,59.995937622479246,
2,0,2,0,,,,,1,0,1,0,4,0,4,0,,,,,,,,,,,,,,,,,,,,,,,,,,,,,,,,,,,,,,,,,,,,,,,,,Listen to the question and speak out your answer!,1619.0481798648834,None,1619.03026471138,1621.0480217933655,"Das Messer ist so stumpf, dass wir nicht mehr brauchen.",brauchen,1620.4312955617904,None,1623.8981475114822,1624.9148709774017,1635.6153985738754,None,1637.0321547985077,None,./data/Subject_01/Session_03/Exp_data/2020_Jul_16_1819/rec_QA_run_02_block_001_trial_004.wav,,,,01,03,English,A2,True,False,True,False,False,True,True,True,True,True,True,True,No,2,No,No,No,No,2020_Jul_16_1819,nibs_stage_1,3.2.3,59.995937622479246,
2,0,2,0,,,,,1,0,1,0,5,0,5,0,,,,,,,,,,,,,,,,,,,,,,,,,,,,,,,,,,,,,,,,,,,,,,,,,Listen to the question and speak out your answer!,1640.1006889343262,None,1640.0812103986739,1642.0990898609161,Wir leben in dem universalen Weltall.,leben,1641.4823986768722,None,1644.4158806085586,None,1656.6831475973129,None,1658.0999269485474,None,./data/Subject_01/Session_03/Exp_data/2020_Jul_16_1819/rec_QA_run_02_block_001_trial_005.wav,,,,01,03,English,A2,True,False,True,False,False,True,True,True,True,True,True,True,No,2,No,No,No,No,2020_Jul_16_1819,nibs_stage_1,3.2.3,59.995937622479246,
2,0,2,0,,,,,1,0,1,0,6,0,6,0,,,,,,,,,,,,,,,,,,,,,,,,,,,,,,,,,,,,,,,,,,,,,,,,,Listen to the question and speak out your answer!,1661.1171867847443,None,1661.099020576477,1663.1168518066406,"Wer im Glashaus sitzt, soll nicht mit Steinen werfen.",werfen,1662.5001465559005,None,1666.167016673088,None,1677.7009045362472,None,1679.1176998615265,None,./data/Subject_01/Session_03/Exp_data/2020_Jul_16_1819/rec_QA_run_02_block_001_trial_006.wav,,,,01,03,English,A2,True,False,True,False,False,True,True,True,True,True,True,True,No,2,No,No,No,No,2020_Jul_16_1819,nibs_stage_1,3.2.3,59.995937622479246,
2,0,2,0,,,,,1,0,1,0,7,0,7,0,,,,,,,,,,,,,,,,,,,,,,,,,,,,,,,,,,,,,,,,,,,,,,,,,Listen to the question and speak out your answer!,1682.185086965561,None,1682.1500977039336,1684.1846778392792,Der Unterricht dauert meistens bis um dreizehn Uhr.,dauert,1683.5679105997085,None,1686.9681386232376,None,1698.7687017202377,None,1700.1854388713837,None,./data/Subject_01/Session_03/Exp_data/2020_Jul_16_1819/rec_QA_run_02_block_001_trial_007.wav,,,,01,03,English,A2,True,False,True,False,False,True,True,True,True,True,True,True,No,2,No,No,No,No,2020_Jul_16_1819,nibs_stage_1,3.2.3,59.995937622479246,
2,0,2,0,,,,,1,0,1,0,8,0,8,0,,,,,,,,,,,,,,,,,,,,,,,,,,,,,,,,,,,,,,,,,,,,,,,,,Listen to the question and speak out your answer!,1703.219120979309,None,1703.1845305919646,1705.2190458774567,Ich möchte gerne ein Zimmer im Hilton-Hotel reservieren.,reservieren,1704.6023265600204,1707.88613986969,1708.269175696373,None,1719.8030316114425,None,1721.2199268341064,None,./data/Subject_01/Session_03/Exp_data/2020_Jul_16_1819/rec_QA_run_02_block_001_trial_008.wav,,,,01,03,English,A2,True,False,True,False,False,True,True,True,True,True,True,True,No,2,No,No,No,No,2020_Jul_16_1819,nibs_stage_1,3.2.3,59.995937622479246,
2,0,2,0,,,,,1,0,1,0,9,0,9,0,,,,,,,,,,,,,,,,,,,,,,,,,,,,,,,,,,,,,,,,,,,,,,,,,Listen to the question and speak out your answer!,1724.2202608585358,None,1724.2022749662399,1726.2201437950134,"Wenn du dich in einer gefährlichen Situation befindest, rufe nach Hilfe.",rufe,1725.6034344911575,1730.1203417778015,1730.5036706209182,None,1740.8042115449905,None,1742.2211229801178,None,./data/Subject_01/Session_03/Exp_data/2020_Jul_16_1819/rec_QA_run_02_block_001_trial_009.wav,,,,01,03,English,A2,True,False,True,False,False,True,True,True,True,True,True,True,No,2,No,No,No,No,2020_Jul_16_1819,nibs_stage_1,3.2.3,59.995937622479246,
2,0,2,0,,,,,1,0,1,0,10,0,10,0,,,,,,,,,,,,,,,,,,,,,,,,,,,,,,,,,,,,,,,,,,,,,,,,,Listen to the question and speak out your answer!,1745.28812789917,None,1745.2700724840163,1747.2878668308258,Wie hoch kosten der Wahren ？,kosten,1746.6712466955184,1748.487941980362,1748.8713955163955,1749.888035774231,1761.8719705820083,1762.8887717723846,1763.2887117862701,None,./data/Subject_01/Session_03/Exp_data/2020_Jul_16_1819/rec_QA_run_02_block_001_trial_010.wav,,,,01,03,English,A2,True,False,True,False,False,True,True,True,True,True,True,True,No,2,No,No,No,No,2020_Jul_16_1819,nibs_stage_1,3.2.3,59.995937622479246,
2,0,2,0,,,,,1,0,1,0,11,0,11,0,,,,,,,,,,,,,,,,,,,,,,,,,,,,,,,,,,,,,,,,,,,,,,,,,Listen to the question and speak out your answer!,1766.3561267852783,None,1766.3378014802931,1768.355654001236,"Ich muss das Buch zurückgeben, das mir ein Freund geliehen hat.",geliehen,1767.7389995336532,1771.4225089550018,1771.8058125257492,None,1782.939736533165,None,1784.3564658164978,None,./data/Subject_01/Session_03/Exp_data/2020_Jul_16_1819/rec_QA_run_02_block_001_trial_011.wav,,,,01,03,English,A2,True,False,True,False,False,True,True,True,True,True,True,True,No,2,No,No,No,No,2020_Jul_16_1819,nibs_stage_1,3.2.3,59.995937622479246,
2,0,2,0,,,,,1,0,1,0,12,0,12,0,,,,,,,,,,,,,,,,,,,,,,,,,,,,,,,,,,,,,,,,,,,,,,,,,Listen to the question and speak out your answer!,1787.3901867866516,None,1787.372208380699,1789.3900809288025,Hans spielt gerne mit Lego.,spielt,1788.7733406305313,1790.6901309490204,1791.0735127210617,None,1803.9741496324539,None,1805.390998840332,None,./data/Subject_01/Session_03/Exp_data/2020_Jul_16_1819/rec_QA_run_02_block_001_trial_012.wav,,,,01,03,English,A2,True,False,True,False,False,True,True,True,True,True,True,True,No,2,No,No,No,No,2020_Jul_16_1819,nibs_stage_1,3.2.3,59.995937622479246,
2,0,2,0,,,,,1,0,1,0,13,0,13,0,,,,,,,,,,,,,,,,,,,,,,,,,,,,,,,,,,,,,,,,,,,,,,,,,Listen to the question and speak out your answer!,1808.457731962204,None,1808.4233156204223,1810.4578268527985,An der Tankstelle kann man Benzin in den Tank füllen.,füllen,1809.8410565137863,1812.8581819534302,1813.2413706064224,None,1825.0419115304946,None,1826.4586927890778,None,./data/Subject_01/Session_03/Exp_data/2020_Jul_16_1819/rec_QA_run_02_block_001_trial_013.wav,,,,01,03,English,A2,True,False,True,False,False,True,True,True,True,True,True,True,No,2,No,No,No,No,2020_Jul_16_1819,nibs_stage_1,3.2.3,59.995937622479246,
2,0,2,0,,,,,1,0,1,0,14,0,14,0,,,,,,,,,,,,,,,,,,,,,,,,,,,,,,,,,,,,,,,,,,,,,,,,,Listen to the question and speak out your answer!,1829.4927279949188,None,1829.4744243860243,1831.4922378063202,Neue Sterne entstehen in den Magellan-Wolken.,entstehen,1830.8755466222763,1833.759029865265,1834.142367529869,1835.159019947052,1846.0763196229934,None,1847.4931299686432,None,./data/Subject_01/Session_03/Exp_data/2020_Jul_16_1819/rec_QA_run_02_block_001_trial_014.wav,,,,01,03,English,A2,True,False,True,False,False,True,True,True,True,True,True,True,No,2,No,No,No,No,2020_Jul_16_1819,nibs_stage_1,3.2.3,59.995937622479246,
2,0,2,0,,,,,1,0,1,0,15,0,15,0,,,,,,,,,,,,,,,,,,,,,,,,,,,,,,,,,,,,,,,,,,,,,,,,,Listen to the question and speak out your answer!,1850.5599157810211,None,1850.5253816604613,1852.5600218772888,Mir ist etwas Unangenehmes passiert.,passiert,1851.9432176828384,1854.326870918274,1854.7101256132125,1855.7268948554993,1867.144103693962,1868.1610929965973,1868.560849905014,None,./data/Subject_01/Session_03/Exp_data/2020_Jul_16_1819/rec_QA_run_02_block_001_trial_015.wav,,,,01,03,English,A2,True,False,True,False,False,True,True,True,True,True,True,True,No,2,No,No,No,No,2020_Jul_16_1819,nibs_stage_1,3.2.3,59.995937622479246,
2,0,2,0,,,,,1,0,1,0,16,0,16,0,,,,,,,,,,,,,,,,,,,,,,,,,,,,,,,,,,,,,,,,,,,,,,,,,Listen to the question and speak out your answer!,1871.5949997901917,None,1871.5599156379699,1873.59464097023,"Wenn Sie mit dem Vertrag nicht zufrieden sind, können Sie ihn vor seinem Ablauf kündigen.",kündigen,1872.9443775892257,None,1878.0779844999313,None,1888.1450804948806,1889.1619138717651,1889.5619277954102,None,./data/Subject_01/Session_03/Exp_data/2020_Jul_16_1819/rec_QA_run_02_block_001_trial_016.wav,,,,01,03,English,A2,True,False,True,False,False,True,True,True,True,True,True,True,No,2,No,No,No,No,2020_Jul_16_1819,nibs_stage_1,3.2.3,59.995937622479246,
2,0,2,0,,,,,1,0,1,0,17,0,17,0,,,,,,,,,,,,,,,,,,,,,,,,,,,,,,,,,,,,,,,,,,,,,,,,,Listen to the question and speak out your answer!,1892.6294620037079,None,1892.5944987297057,1894.6288669109344,"Die Suppe wird nicht so heiß gegessen, wie sie gekocht wird.",gegessen,1894.0121375799179,None,1897.712331700325,1898.729071855545,1909.2130564928054,1910.2296559810638,1910.6296989917755,None,./data/Subject_01/Session_03/Exp_data/2020_Jul_16_1819/rec_QA_run_02_block_001_trial_017.wav,,,,01,03,English,A2,True,False,True,False,False,True,True,True,True,True,True,True,No,2,No,No,No,No,2020_Jul_16_1819,nibs_stage_1,3.2.3,59.995937622479246,
2,0,2,0,,,,,1,0,1,0,18,0,18,0,,,,,,,,,,,,,,,,,,,,,,,,,,,,,,,,,,,,,,,,,,,,,,,,,Listen to the question and speak out your answer!,1913.6632678508759,None,1913.6287616252898,1915.6632778644562,Ich habe gestern einen interessanten Mann kennen gelernt.,kennen,1915.0465575933456,1918.3967587947845,1918.7800935983657,1919.796770811081,1930.214061665535,None,1931.630744934082,None,./data/Subject_01/Session_03/Exp_data/2020_Jul_16_1819/rec_QA_run_02_block_001_trial_018.wav,,,,01,03,English,A2,True,False,True,False,False,True,True,True,True,True,True,True,No,2,No,No,No,No,2020_Jul_16_1819,nibs_stage_1,3.2.3,59.995937622479246,
2,0,2,0,,,,,1,0,1,0,19,0,19,0,,,,,,,,,,,,,,,,,,,,,,,,,,,,,,,,,,,,,,,,,,,,,,,,,Listen to the question and speak out your answer!,1934.6979248523712,None,1934.6798603773116,1936.698008775711,Die Sonne scheint durch die grauen Wolken.,scheint,1936.0809807062149,None,1938.814465689659,None,1951.2819446802139,1952.2985289096832,1952.6985528469086,None,./data/Subject_01/Session_03/Exp_data/2020_Jul_16_1819/rec_QA_run_02_block_001_trial_019.wav,,,,01,03,English,A2,True,False,True,False,False,True,True,True,True,True,True,True,No,2,No,No,No,No,2020_Jul_16_1819,nibs_stage_1,3.2.3,59.995937622479246,
2,0,2,0,,,,,1,0,1,0,20,0,20,0,,,,,,,,,,,,,,,,,,,,,,,,,,,,,,,,,,,,,,,,,,,,,,,,,Listen to the question and speak out your answer!,1955.765769958496,None,1955.747595334053,1957.7654438018799,"Die Brille bekommst du beim Optiker, dann kannst du wieder perfekt sehen.",sehen,1957.148734498024,1961.1992499828339,1961.549018549919,None,1972.3495396852493,1973.3662378787994,1973.7665858268738,None,./data/Subject_01/Session_03/Exp_data/2020_Jul_16_1819/rec_QA_run_02_block_001_trial_020.wav,,,,01,03,English,A2,True,False,True,False,False,True,True,True,True,True,True,True,No,2,No,No,No,No,2020_Jul_16_1819,nibs_stage_1,3.2.3,59.995937622479246,
2,0,2,0,,,,,1,0,1,0,21,0,21,0,,,,,,,,,,,,,,,,,,,,,,,,,,,,,,,,,,,,,,,,,,,,,,,,,Listen to the question and speak out your answer!,1976.8504037857056,None,1976.8154514074324,1978.849868774414,"Er ist ein ehrlicher Mann, der nie lügt.",lügt,1978.199829506874,None,1980.9999756097793,None,1993.400603699684,None,1994.8174648284912,None,./data/Subject_01/Session_03/Exp_data/2020_Jul_16_1819/rec_QA_run_02_block_001_trial_021.wav,,,,01,03,English,A2,True,False,True,False,False,True,True,True,True,True,True,True,No,2,No,No,No,No,2020_Jul_16_1819,nibs_stage_1,3.2.3,59.995937622479246,
2,0,2,0,,,,,1,0,1,0,22,0,22,0,,,,,,,,,,,,,,,,,,,,,,,,,,,,,,,,,,,,,,,,,,,,,,,,,Listen to the question and speak out your answer!,1997.8849339485168,None,1997.8497296333312,1999.8842949867249,"Wenn es wärmer wird, werde ich die Fenster öffnen.",öffnen,1999.2677037000656,None,2002.4344195604324,None,2014.468382525444,None,2015.8851208686829,None,./data/Subject_01/Session_03/Exp_data/2020_Jul_16_1819/rec_QA_run_02_block_001_trial_022.wav,,,,01,03,English,A2,True,False,True,False,False,True,True,True,True,True,True,True,No,2,No,No,No,No,2020_Jul_16_1819,nibs_stage_1,3.2.3,59.995937622479246,
2,0,2,0,,,,,1,0,1,0,23,0,23,0,,,,,,,,,,,,,,,,,,,,,,,,,,,,,,,,,,,,,,,,,,,,,,,,,Listen to the question and speak out your answer!,2018.9359560012817,None,2018.9008603334426,2020.9354898929596,"Er bekam eine neue Mutter, als sein Vater wieder heiratete.",heiratete,2020.2853645563125,None,2024.518880534172,None,2035.486117529869,2036.5028557777405,2036.9029388427734,None,./data/Subject_01/Session_03/Exp_data/2020_Jul_16_1819/rec_QA_run_02_block_001_trial_023.wav,,,,01,03,English,A2,True,False,True,False,False,True,True,True,True,True,True,True,No,2,No,No,No,No,2020_Jul_16_1819,nibs_stage_1,3.2.3,59.995937622479246,
2,0,2,0,,,,,1,0,1,0,24,0,24,0,,,,,,,,,,,,,,,,,,,,,,,,,,,,,,,,,,,,,,,,,,,,,,,,,Listen to the question and speak out your answer!,2039.9706227779388,None,2039.9519944429396,2041.9697949886322,"Die Augen meines Sohnes glänzten, als er das Geschenk sah.",sah,2041.3530956983566,None,2045.2200776815414,None,2056.5545226812364,None,2057.97066283226,None,./data/Subject_01/Session_03/Exp_data/2020_Jul_16_1819/rec_QA_run_02_block_001_trial_024.wav,,,,01,03,English,A2,True,False,True,False,False,True,True,True,True,True,True,True,No,2,No,No,No,No,2020_Jul_16_1819,nibs_stage_1,3.2.3,59.995937622479246,
2,0,2,0,,,,,1,0,1,0,,,,,,,,,,,,,,,,,,,,,,,,,,,,,,,,,,,,,,,,,,2062.020853996277,None,,,,,,,,,,,,,,,,,,,,,,,,,,,,,01,03,English,A2,True,False,True,False,False,True,True,True,True,True,True,True,No,2,No,No,No,No,2020_Jul_16_1819,nibs_stage_1,3.2.3,59.995937622479246,
2,0,2,0,,,,,,,,,,,,,,,,,,,,,,,,,,,,,,,,,,,,,,,,,,,,,,,,,,,,,,,,,,,,,,,,,,,,,,,,,,,,,Please remain seated until further instruction via the earphone.,160.2227427959442,None,01,03,English,A2,True,False,True,False,False,True,True,True,True,True,True,True,No,2,No,No,No,No,2020_Jul_16_1819,nibs_stage_1,3.2.3,59.995937622479246,
