run.thisRepN,run.thisTrialN,run.thisN,run.thisIndex,QA_block.thisRepN,QA_block.thisTrialN,QA_block.thisN,QA_block.thisIndex,QA_trial.thisRepN,QA_trial.thisTrialN,QA_trial.thisN,QA_trial.thisIndex,fade_in_text.text,fade_in_text.started,fade_in_text.stopped,RS_intro_title.started,RS_intro_title.stopped,RS_intro_text.text,RS_intro_text.started,RS_intro_text.stopped,RS_intro_audio.started,RS_intro_audio.stopped,RS_rec_text.text,RS_rec_text.started,RS_rec_text.stopped,Pause_cont.started,Pause_cont.stopped,QA_intro_title.started,QA_intro_title.stopped,QA_intro_text.text,QA_intro_text.started,QA_intro_text.stopped,QA_intro_audio.started,QA_intro_audio.stopped,QA_intro_cont.started,QA_intro_cont.stopped,QA_rec_text.text,QA_rec_text.started,QA_rec_text.stopped,QA_rec_beep_hint.started,QA_rec_beep_hint.stopped,QA_rec_question.sen_text,QA_rec_question.cen_text,QA_rec_question.started,QA_rec_question.stopped,QA_rec_beep_start.started,QA_rec_beep_start.stopped,QA_rec_beep_end.started,QA_rec_beep_end.stopped,QA_rec_break.started,QA_rec_break.stopped,filename,participant,session,First language,German level,Full_screen,Instruction,Intro,Artifact,Cali_pre,Fade_in_out,Artifact_within,Resting_State,QA,Pause,Cali_post,End,Breakpoint_Cali_pre_trial,Breakpoint_Run,Breakpoint_RS_block,Breakpoint_QA_block,Breakpoint_QA_trial,Breakpoint_Cali_post_trial,date,expName,psychopyVersion,frameRate,
0,0,0,0,0,0,0,0,0,0,0,0,Please remain seated until further instruction via the earphone.,553.7431228160858,None,763.1375379562378,None," - Task: Keep seated and relaxed with either      
             opening or closing eyes                  
 - Beep sound with decreasing pitch: Block finish 
",763.1375379562378,None,763.1375528812409,None,"Please keep relaxed and open your eyes.
Note: Blinking is allowed.",786.1551079750061,966.162764787674,969.5460479259491,None,1006.7642819881439,1046.7994329929352," - Task: Listen to the question& Speak out answer 
 - Melodious beep sound: Trial start              
 - Silent sound (blank): censored word            
 - Beep sound with increasing pitch: Rec. start   
 - Beep sound with decreasing pitch: Rec. finish  
",1006.7642819881439,1046.7994329929352,1006.7644767284394,None,1046.1660578250885,None,Listen to the question and speak out your answer!,1056.9000568389893,None,1056.8832687854767,1058.8833057880402,"Siehst du! Ich habe dir gesagt, dass es regnen würde.",gesagt,1058.266630601883,1061.6666679382324,1062.0834238052369,1063.0834839344025,1073.467297744751,None,1074.8673558235168,1075.8674049377441,./data/Subject_01/Session_01/Exp_data/2020_Jul_06_1646/rec_QA_run_00_block_000_trial_000.wav,01,01,English,A2,True,False,True,False,False,True,True,True,True,True,True,True,No,No,No,No,No,No,2020_Jul_06_1646,nibs_stage_1,3.2.3,59.83468905050344,
0,0,0,0,0,0,0,0,1,0,1,0,,,,,,,,,,,,,,,,,,,,,,,,,Listen to the question and speak out your answer!,1077.9175839424133,None,1077.90090508461,1079.900918006897,Morgen ändert sich das Wetter ganz bestimmt.,bestimmt,1079.2841956138611,None,1082.1176757335663,None,1094.4851836681366,1095.4851729869843,1095.8851749897003,1096.8852310180664,./data/Subject_01/Session_01/Exp_data/2020_Jul_06_1646/rec_QA_run_00_block_000_trial_001.wav,01,01,English,A2,True,False,True,False,False,True,True,True,True,True,True,True,No,No,No,No,No,No,2020_Jul_06_1646,nibs_stage_1,3.2.3,59.83468905050344,
0,0,0,0,0,0,0,0,2,0,2,0,,,,,,,,,,,,,,,,,,,,,,,,,Listen to the question and speak out your answer!,1098.9688849449158,None,1098.9520646095277,1100.9522659778595,"Sie hat Schlafmittel genommen, damit sie gut schlafen kann.",schlafen,1100.3520607471467,None,1104.3355867385865,None,1115.552770805359,None,1116.9528028964996,1117.95277094841,./data/Subject_01/Session_01/Exp_data/2020_Jul_06_1646/rec_QA_run_00_block_000_trial_002.wav,01,01,English,A2,True,False,True,False,False,True,True,True,True,True,True,True,No,No,No,No,No,No,2020_Jul_06_1646,nibs_stage_1,3.2.3,59.83468905050344,
0,0,0,0,0,0,0,0,3,0,3,0,,,,,,,,,,,,,,,,,,,,,,,,,Listen to the question and speak out your answer!,1119.9863188266754,None,1119.9695741653443,1121.969950914383,"Da Elena arbeiten muss, überlässt sie ihre Kinder seiner Mutter.",überlässt,1121.3530437469483,None,1125.5032157421113,None,1136.553750705719,None,1137.9539828300476,1138.9537599086761,./data/Subject_01/Session_01/Exp_data/2020_Jul_06_1646/rec_QA_run_00_block_000_trial_003.wav,01,01,English,A2,True,False,True,False,False,True,True,True,True,True,True,True,No,No,No,No,No,No,2020_Jul_06_1646,nibs_stage_1,3.2.3,59.83468905050344,
0,0,0,0,0,0,0,0,4,0,4,0,,,,,,,,,,,,,,,,,,,,,,,,,Listen to the question and speak out your answer!,1141.004508972168,None,1140.987302017212,1142.9873609542847,Singapore liegt in Südostasien.,liegt,1142.3706635951996,1144.8208589553833,1145.2208866596222,None,1157.5713545799256,1158.571380853653,1158.9713978767395,1159.9713628292084,./data/Subject_01/Session_01/Exp_data/2020_Jul_06_1646/rec_QA_run_00_block_000_trial_004.wav,01,01,English,A2,True,False,True,False,False,True,True,True,True,True,True,True,No,No,No,No,No,No,2020_Jul_06_1646,nibs_stage_1,3.2.3,59.83468905050344,
0,0,0,0,0,0,0,0,5,0,5,0,,,,,,,,,,,,,,,,,,,,,,,,,Listen to the question and speak out your answer!,1162.0548930168152,None,1162.0382617473604,1164.0382897853851,Morgen machen wir einen Ausflug in den Schönbrunner Tiergarten.,machen,1163.4382266521454,1167.08846783638,1167.4884685993195,None,1178.622311782837,None,1180.0222809314728,1181.0224277973175,./data/Subject_01/Session_01/Exp_data/2020_Jul_06_1646/rec_QA_run_00_block_000_trial_005.wav,01,01,English,A2,True,False,True,False,False,True,True,True,True,True,True,True,No,No,No,No,No,No,2020_Jul_06_1646,nibs_stage_1,3.2.3,59.83468905050344,
0,0,0,0,0,0,0,0,6,0,6,0,,,,,,,,,,,,,,,,,,,,,,,,,Listen to the question and speak out your answer!,1183.0733308792114,None,1183.055901002884,1185.0559418201447,Ich höre sie den Namen Sam rufen.,rufen,1184.4393047809601,1186.7227189540863,1187.1058117866517,None,1199.639725637436,1200.6564309597015,1201.0564539432526,None,./data/Subject_01/Session_01/Exp_data/2020_Jul_06_1646/rec_QA_run_00_block_000_trial_006.wav,01,01,English,A2,True,False,True,False,False,True,True,True,True,True,True,True,No,No,No,No,No,No,2020_Jul_06_1646,nibs_stage_1,3.2.3,59.83468905050344,
0,0,0,0,0,0,0,0,7,0,7,0,,,,,,,,,,,,,,,,,,,,,,,,,Listen to the question and speak out your answer!,1204.124184846878,None,1204.1066356658937,1206.1234469413757,Die zwei Männer bewerben sich um einen gleichen Arbeitsplatz.,bewerben,1205.5066556453705,None,1209.6068427085877,1210.6235859394073,1220.7073738098145,1221.7241189479828,1222.1241438388824,None,./data/Subject_01/Session_01/Exp_data/2020_Jul_06_1646/rec_QA_run_00_block_000_trial_007.wav,01,01,English,A2,True,False,True,False,False,True,True,True,True,True,True,True,No,No,No,No,No,No,2020_Jul_06_1646,nibs_stage_1,3.2.3,59.83468905050344,
0,0,0,0,0,0,0,0,8,0,8,0,,,,,,,,,,,,,,,,,,,,,,,,,Listen to the question and speak out your answer!,1225.1911828517914,None,1225.1742835998537,1227.190997838974,Lenas Hund Tobi wird immer am Abend gefüttert.,gefüttert,1226.5743357658387,None,1229.9077918052674,1230.9246289730072,1241.7750167369843,1242.7917368412018,1243.1917669773102,None,./data/Subject_01/Session_01/Exp_data/2020_Jul_06_1646/rec_QA_run_00_block_000_trial_008.wav,01,01,English,A2,True,False,True,False,False,True,True,True,True,True,True,True,No,No,No,No,No,No,2020_Jul_06_1646,nibs_stage_1,3.2.3,59.83468905050344,
0,0,0,0,0,0,0,0,9,0,9,0,,,,,,,,,,,,,,,,,,,,,,,,,Listen to the question and speak out your answer!,1246.2421188354492,None,1246.2252680301667,1248.241989850998,Die Katzen jagen Mäuse.,jagen,1247.6253046512604,None,1249.82548661232,None,1262.8260147094727,None,1264.242740869522,None,./data/Subject_01/Session_01/Exp_data/2020_Jul_06_1646/rec_QA_run_00_block_000_trial_009.wav,01,01,English,A2,True,False,True,False,False,True,True,True,True,True,True,True,No,No,No,No,No,No,2020_Jul_06_1646,nibs_stage_1,3.2.3,59.83468905050344,
0,0,0,0,0,0,0,0,10,0,10,0,,,,,,,,,,,,,,,,,,,,,,,,,Listen to the question and speak out your answer!,1267.2766029834747,None,1267.259576034546,1269.276386976242,Ich habe alle meine Freunde zu meiner Geburtstags Party eingeladen.,eingeladen,1268.6596157073975,None,1273.1598426818848,None,1283.8603257656098,1284.8773918151855,1285.27707695961,None,./data/Subject_01/Session_01/Exp_data/2020_Jul_06_1646/rec_QA_run_00_block_000_trial_010.wav,01,01,English,A2,True,False,True,False,False,True,True,True,True,True,True,True,No,No,No,No,No,No,2020_Jul_06_1646,nibs_stage_1,3.2.3,59.83468905050344,
0,0,0,0,0,0,0,0,11,0,11,0,,,,,,,,,,,,,,,,,,,,,,,,,Listen to the question and speak out your answer!,1288.3108248710632,None,1288.2939390659333,1290.310627937317,Ich kann mich noch gut an meinen ersten Schultag erinnern.,erinnern,1289.6939517974854,1292.7774279117584,1293.1607656002045,1294.1774859428406,1304.8779897212983,None,1306.2947537899017,None,./data/Subject_01/Session_01/Exp_data/2020_Jul_06_1646/rec_QA_run_00_block_000_trial_011.wav,01,01,English,A2,True,False,True,False,False,True,True,True,True,True,True,True,No,No,No,No,No,No,2020_Jul_06_1646,nibs_stage_1,3.2.3,59.83468905050344,
0,0,0,0,0,0,0,0,12,0,12,0,,,,,,,,,,,,,,,,,,,,,,,,,Listen to the question and speak out your answer!,1309.3616878986359,None,1309.3282479286195,1311.3616859912872,Alle diese Probleme scheinen in dieselbe große Frage zu münden.,scheinen,1310.744856786728,1314.7951188087463,1315.178489637375,1316.1951968669891,1325.945743751526,None,1327.3624079227448,None,./data/Subject_01/Session_01/Exp_data/2020_Jul_06_1646/rec_QA_run_00_block_000_trial_012.wav,01,01,English,A2,True,False,True,False,False,True,True,True,True,True,True,True,No,No,No,No,No,No,2020_Jul_06_1646,nibs_stage_1,3.2.3,59.83468905050344,
0,0,0,0,0,0,0,0,13,0,13,0,,,,,,,,,,,,,,,,,,,,,,,,,Listen to the question and speak out your answer!,1330.396147966385,None,1330.379264688492,1332.3960678577423,Der Bau des Gebäudes hat 3 Jahre gedauert und ist endlich fast abgeschlossen.,abgeschlossen,1331.779289674759,None,1336.7794997215271,None,1346.9801187038422,None,1348.3967700004578,None,./data/Subject_01/Session_01/Exp_data/2020_Jul_06_1646/rec_QA_run_00_block_000_trial_013.wav,01,01,English,A2,True,False,True,False,False,True,True,True,True,True,True,True,No,No,No,No,No,No,2020_Jul_06_1646,nibs_stage_1,3.2.3,59.83468905050344,
0,0,0,0,0,0,0,0,14,0,14,0,,,,,,,,,,,,,,,,,,,,,,,,,Listen to the question and speak out your answer!,1351.4304687976837,None,1351.4135832309723,1353.4303028583527,Der Spender möchte anonym bleiben.,bleiben,1352.8136157512665,1354.930496931076,1355.2804097652436,1356.297103881836,1368.0143227100373,None,1369.4310958385468,None,./data/Subject_01/Session_01/Exp_data/2020_Jul_06_1646/rec_QA_run_00_block_000_trial_014.wav,01,01,English,A2,True,False,True,False,False,True,True,True,True,True,True,True,No,No,No,No,No,No,2020_Jul_06_1646,nibs_stage_1,3.2.3,59.83468905050344,
0,0,0,0,0,0,0,0,15,0,15,0,,,,,,,,,,,,,,,,,,,,,,,,,Listen to the question and speak out your answer!,1372.5147848129272,None,1372.481286621094,1374.5146849155426,Ich habe das Bild an die Wand gehängt. ,gehängt,1373.8980686187745,None,1376.3980566978455,None,1389.0987057209015,None,1390.5155148506165,None,./data/Subject_01/Session_01/Exp_data/2020_Jul_06_1646/rec_QA_run_00_block_000_trial_015.wav,01,01,English,A2,True,False,True,False,False,True,True,True,True,True,True,True,No,No,No,No,No,No,2020_Jul_06_1646,nibs_stage_1,3.2.3,59.83468905050344,
0,0,0,0,0,0,0,0,16,0,16,0,,,,,,,,,,,,,,,,,,,,,,,,,Listen to the question and speak out your answer!,1393.5158460140228,None,1393.4989370822907,1395.5156610012054,Er kann mit den Händen an einem Baum hängen.,hängen,1394.898957681656,None,1397.6657537937165,None,1410.0997027873993,None,1411.51651597023,None,./data/Subject_01/Session_01/Exp_data/2020_Jul_06_1646/rec_QA_run_00_block_000_trial_016.wav,01,01,English,A2,True,False,True,False,False,True,True,True,True,True,True,True,No,No,No,No,No,No,2020_Jul_06_1646,nibs_stage_1,3.2.3,59.83468905050344,
0,0,0,0,0,0,0,0,17,0,17,0,,,,,,,,,,,,,,,,,,,,,,,,,Listen to the question and speak out your answer!,1414.5508999824524,None,1414.533288192749,1416.5500299930573,Ich werde Ihnen das Kapital mit Zinsen zurückgegeben.,zurückgegeben,1415.9333426475525,1419.3171608448029,1419.7001587867737,1420.7169728279114,1431.1340727329255,1432.150771856308,1432.55078291893,None,./data/Subject_01/Session_01/Exp_data/2020_Jul_06_1646/rec_QA_run_00_block_000_trial_017.wav,01,01,English,A2,True,False,True,False,False,True,True,True,True,True,True,True,No,No,No,No,No,No,2020_Jul_06_1646,nibs_stage_1,3.2.3,59.83468905050344,
0,0,0,0,0,0,0,0,18,0,18,0,,,,,,,,,,,,,,,,,,,,,,,,,Listen to the question and speak out your answer!,1435.634377002716,None,1435.6008985996248,1437.634379863739,Kann ich mich um das Stipendium bewerben?,bewerben,1437.0177196979523,1439.301519870758,1439.6844567775727,None,1452.218412590027,1453.2351248264313,1453.6350939273834,None,./data/Subject_01/Session_01/Exp_data/2020_Jul_06_1646/rec_QA_run_00_block_000_trial_018.wav,01,01,English,A2,True,False,True,False,False,True,True,True,True,True,True,True,No,No,No,No,No,No,2020_Jul_06_1646,nibs_stage_1,3.2.3,59.83468905050344,
0,0,0,0,0,0,0,0,19,0,19,0,,,,,,,,,,,,,,,,,,,,,,,,,Listen to the question and speak out your answer!,1456.66894698143,None,1456.652105665207,1458.6687309741974,Ich möchte einen Flug nach Spanien buchen.,buchen,1458.0520166873932,1460.6357519626617,1461.0188436031342,None,1473.2527567863465,None,1474.6695039272308,None,./data/Subject_01/Session_01/Exp_data/2020_Jul_06_1646/rec_QA_run_00_block_000_trial_019.wav,01,01,English,A2,True,False,True,False,False,True,True,True,True,True,True,True,No,No,No,No,No,No,2020_Jul_06_1646,nibs_stage_1,3.2.3,59.83468905050344,
0,0,0,0,0,0,0,0,20,0,20,0,,,,,,,,,,,,,,,,,,,,,,,,,Listen to the question and speak out your answer!,1477.703115940094,None,1477.6863831996918,1479.7030839920044,Ich denke immer an meine Kindheit zurück.,denke,1479.0864796161652,None,1481.786518764496,None,1494.2871286392212,None,1495.7038509845734,None,./data/Subject_01/Session_01/Exp_data/2020_Jul_06_1646/rec_QA_run_00_block_000_trial_020.wav,01,01,English,A2,True,False,True,False,False,True,True,True,True,True,True,True,No,No,No,No,No,No,2020_Jul_06_1646,nibs_stage_1,3.2.3,59.83468905050344,
0,0,0,0,0,0,0,0,21,0,21,0,,,,,,,,,,,,,,,,,,,,,,,,,Listen to the question and speak out your answer!,1498.7376120090485,None,1498.7206580162049,1500.7375469207764,"Bitte, erinnern Sie mich daran, wenn ich es vergessen sollte.",erinnern,1500.1207327365876,None,1503.8875977516175,None,1515.32157869339,None,1516.738205909729,None,./data/Subject_01/Session_01/Exp_data/2020_Jul_06_1646/rec_QA_run_00_block_000_trial_021.wav,01,01,English,A2,True,False,True,False,False,True,True,True,True,True,True,True,No,No,No,No,No,No,2020_Jul_06_1646,nibs_stage_1,3.2.3,59.83468905050344,
0,0,0,0,0,0,0,0,22,0,22,0,,,,,,,,,,,,,,,,,,,,,,,,,Listen to the question and speak out your answer!,1519.8051309585571,None,1519.7884207725526,1521.805125951767,Ich gratuliere dir zum Bestehen dieser schwierigen Prüfung.,gratuliere,1521.1884407520295,None,1525.0219487667084,None,1536.3891977787018,None,1537.8059749603271,None,./data/Subject_01/Session_01/Exp_data/2020_Jul_06_1646/rec_QA_run_00_block_000_trial_022.wav,01,01,English,A2,True,False,True,False,False,True,True,True,True,True,True,True,No,No,No,No,No,No,2020_Jul_06_1646,nibs_stage_1,3.2.3,59.83468905050344,
0,0,0,0,0,0,0,0,23,0,23,0,,,,,,,,,,,,,,,,,,,,,,,,,Listen to the question and speak out your answer!,1540.8402769565582,None,1540.8227841377259,1542.8395199775696,Sie gehen diese Straße geradeaus und biegen an der ersten Kreuzung rechts ab.,biegen,1542.222787809372,None,1547.2563848018647,None,1557.4235445976258,None,1558.8402769565582,None,./data/Subject_01/Session_01/Exp_data/2020_Jul_06_1646/rec_QA_run_00_block_000_trial_023.wav,01,01,English,A2,True,False,True,False,False,True,True,True,True,True,True,True,No,No,No,No,No,No,2020_Jul_06_1646,nibs_stage_1,3.2.3,59.83468905050344,
0,0,0,0,0,0,0,0,24,0,24,0,,,,,,,,,,,,,,,,,,,,,,,,,Listen to the question and speak out your answer!,1561.8745439052582,None,1561.8571280956269,1563.873878955841,"Die Produkte, die ich bestellt hatte, kamen drei Tage später an.",kamen,1563.2571627616883,1567.407446861267,1567.757428598404,None,1578.4579727172852,None,1579.8746719360352,None,./data/Subject_01/Session_01/Exp_data/2020_Jul_06_1646/rec_QA_run_00_block_000_trial_024.wav,01,01,English,A2,True,False,True,False,False,True,True,True,True,True,True,True,No,No,No,No,No,No,2020_Jul_06_1646,nibs_stage_1,3.2.3,59.83468905050344,
0,0,0,0,0,0,0,0,,,,,,,,,,,,,,,,,,1583.9248118400574,None,,,,,,,,,,,,,,,,,,,,,,,,,,01,01,English,A2,True,False,True,False,False,True,True,True,True,True,True,True,No,No,No,No,No,No,2020_Jul_06_1646,nibs_stage_1,3.2.3,59.83468905050344,
0,0,0,0,1,0,1,0,0,0,0,0,,,,,,,,,,,,,,,,,,,,,,,,,Listen to the question and speak out your answer!,1631.6772208213806,None,1631.6606068134308,1633.6773028373718,Wir können das Fleisch grillen oder braten.,grillen,1633.0606147766114,None,1635.9274057865143,1636.944109916687,1648.2612947940827,None,1649.6780469417572,None,./data/Subject_01/Session_01/Exp_data/2020_Jul_06_1646/rec_QA_run_00_block_001_trial_000.wav,01,01,English,A2,True,False,True,False,False,True,True,True,True,True,True,True,No,No,No,No,No,No,2020_Jul_06_1646,nibs_stage_1,3.2.3,59.83468905050344,
0,0,0,0,1,0,1,0,1,0,1,0,,,,,,,,,,,,,,,,,,,,,,,,,Listen to the question and speak out your answer!,1652.744985818863,None,1652.7115668296815,1654.7451338768005,"Ich geht auf das Postamt, um ein Paket meinem Freund zu schicken.",schicken,1654.128317785263,1658.0118780136108,1658.3952526569367,None,1669.3290636062623,None,1670.745808839798,None,./data/Subject_01/Session_01/Exp_data/2020_Jul_06_1646/rec_QA_run_00_block_001_trial_001.wav,01,01,English,A2,True,False,True,False,False,True,True,True,True,True,True,True,No,No,No,No,No,No,2020_Jul_06_1646,nibs_stage_1,3.2.3,59.83468905050344,
0,0,0,0,1,0,1,0,2,0,2,0,,,,,,,,,,,,,,,,,,,,,,,,,Listen to the question and speak out your answer!,1673.746188879013,None,1673.7293171405793,1675.746064901352,Bitte zerstören Sie nicht die Natur!,zerstören,1675.1293956756592,None,1677.7961606502533,None,1690.330120754242,None,1691.7469758987427,None,./data/Subject_01/Session_01/Exp_data/2020_Jul_06_1646/rec_QA_run_00_block_001_trial_002.wav,01,01,English,A2,True,False,True,False,False,True,True,True,True,True,True,True,No,No,No,No,No,No,2020_Jul_06_1646,nibs_stage_1,3.2.3,59.83468905050344,
0,0,0,0,1,0,1,0,3,0,3,0,,,,,,,,,,,,,,,,,,,,,,,,,Listen to the question and speak out your answer!,1694.7971138954163,None,1694.7637521743775,1696.7971107959747,Menschen und Firmen können ein Konto bei der Bank eröffnen.,eröffnen,1696.18042178154,1699.5305898189545,1699.9140526771546,1700.9306359291077,1711.3811656951905,None,1712.79794383049,None,./data/Subject_01/Session_01/Exp_data/2020_Jul_06_1646/rec_QA_run_00_block_001_trial_003.wav,01,01,English,A2,True,False,True,False,False,True,True,True,True,True,True,True,No,No,No,No,No,No,2020_Jul_06_1646,nibs_stage_1,3.2.3,59.83468905050344,
0,0,0,0,1,0,1,0,4,0,4,0,,,,,,,,,,,,,,,,,,,,,,,,,Listen to the question and speak out your answer!,1715.81480884552,None,1715.7981199264527,1717.8150789737701,Die Sonne brennt im Sommer auf der Haut.,brennt,1717.1981276988984,None,1719.8649217605591,None,1732.3823506355286,None,1733.7989618778229,None,./data/Subject_01/Session_01/Exp_data/2020_Jul_06_1646/rec_QA_run_00_block_001_trial_004.wav,01,01,English,A2,True,False,True,False,False,True,True,True,True,True,True,True,No,No,No,No,No,No,2020_Jul_06_1646,nibs_stage_1,3.2.3,59.83468905050344,
0,0,0,0,1,0,1,0,5,0,5,0,,,,,,,,,,,,,,,,,,,,,,,,,Listen to the question and speak out your answer!,1736.8658809661865,None,1736.8324719905854,1738.8658678531647,"Wenn ich im Unterricht aufpasse, werde ich den Test sicher bestehen.",aufpasse,1738.2158596038819,None,1742.3493737697602,None,1753.4166078090668,1754.4333209991455,1754.8334000110626,None,./data/Subject_01/Session_01/Exp_data/2020_Jul_06_1646/rec_QA_run_00_block_001_trial_005.wav,01,01,English,A2,True,False,True,False,False,True,True,True,True,True,True,True,No,No,No,No,No,No,2020_Jul_06_1646,nibs_stage_1,3.2.3,59.83468905050344,
0,0,0,0,1,0,1,0,6,0,6,0,,,,,,,,,,,,,,,,,,,,,,,,,Listen to the question and speak out your answer!,1757.867301940918,None,1757.8501910686493,1759.8669199943542,In der Morgen wasche ich mein Gesicht.,wasche,1759.2501577854157,1761.533665895462,1761.9170357704163,None,1774.451015663147,None,1775.867830991745,None,./data/Subject_01/Session_01/Exp_data/2020_Jul_06_1646/rec_QA_run_00_block_001_trial_006.wav,01,01,English,A2,True,False,True,False,False,True,True,True,True,True,True,True,No,No,No,No,No,No,2020_Jul_06_1646,nibs_stage_1,3.2.3,59.83468905050344,
0,0,0,0,1,0,1,0,7,0,7,0,,,,,,,,,,,,,,,,,,,,,,,,,Listen to the question and speak out your answer!,1778.9015429019928,None,1778.8845781803132,1780.9013187885284,Dort an der Ampel kannst du die Straße überqueren.,überqueren,1780.2846056938172,None,1783.6514257907868,None,1795.4852597236634,1796.5020899772644,1796.9021108150482,None,./data/Subject_01/Session_01/Exp_data/2020_Jul_06_1646/rec_QA_run_00_block_001_trial_007.wav,01,01,English,A2,True,False,True,False,False,True,True,True,True,True,True,True,No,No,No,No,No,No,2020_Jul_06_1646,nibs_stage_1,3.2.3,59.83468905050344,
0,0,0,0,1,0,1,0,8,0,8,0,,,,,,,,,,,,,,,,,,,,,,,,,Listen to the question and speak out your answer!,1799.9522819519043,None,1799.9188820838929,1801.9523639678955,Der Läufer hat seine Konkurrenten mühelos geschlagen.,geschlagen,1801.3355826854706,None,1804.8691656112671,1805.8858778476715,1816.5364367485047,None,1817.9531729221344,None,./data/Subject_01/Session_01/Exp_data/2020_Jul_06_1646/rec_QA_run_00_block_001_trial_008.wav,01,01,English,A2,True,False,True,False,False,True,True,True,True,True,True,True,No,No,No,No,No,No,2020_Jul_06_1646,nibs_stage_1,3.2.3,59.83468905050344,
0,0,0,0,1,0,1,0,9,0,9,0,,,,,,,,,,,,,,,,,,,,,,,,,Listen to the question and speak out your answer!,1820.9867777824402,None,1820.9533678531648,1822.986755847931,Brot kann man in der Bäckerei kaufen.,kaufen,1822.3367347240448,None,1824.9035098075867,1825.9201669692993,1837.5375306129456,1838.5541808605194,1838.9542210102081,None,./data/Subject_01/Session_01/Exp_data/2020_Jul_06_1646/rec_QA_run_00_block_001_trial_009.wav,01,01,English,A2,True,False,True,False,False,True,True,True,True,True,True,True,No,No,No,No,No,No,2020_Jul_06_1646,nibs_stage_1,3.2.3,59.83468905050344,
0,0,0,0,1,0,1,0,10,0,10,0,,,,,,,,,,,,,,,,,,,,,,,,,Listen to the question and speak out your answer!,1842.0046470165253,None,1841.9877540111543,1844.0044767856598,"Zu den hundeartigen Tieren, die in Österreich leben, gehört der Wolf.",gehört,1843.387769651413,None,1848.1880187511445,None,1858.5885548114777,None,1860.0053718090057,None,./data/Subject_01/Session_01/Exp_data/2020_Jul_06_1646/rec_QA_run_00_block_001_trial_010.wav,01,01,English,A2,True,False,True,False,False,True,True,True,True,True,True,True,No,No,No,No,No,No,2020_Jul_06_1646,nibs_stage_1,3.2.3,59.83468905050344,
0,0,0,0,1,0,1,0,11,0,11,0,,,,,,,,,,,,,,,,,,,,,,,,,Listen to the question and speak out your answer!,1863.0560820102692,None,1863.038769865036,1865.0555357933044,"Ich gehe ins Museum, um mir die Gemälde anzusehen.",anzusehen,1864.438766670227,1867.755910873413,1868.139027786255,None,1879.6396476745606,1880.6563069820404,1881.056340932846,None,./data/Subject_01/Session_01/Exp_data/2020_Jul_06_1646/rec_QA_run_00_block_001_trial_011.wav,01,01,English,A2,True,False,True,False,False,True,True,True,True,True,True,True,No,No,No,No,No,No,2020_Jul_06_1646,nibs_stage_1,3.2.3,59.83468905050344,
0,0,0,0,1,0,1,0,12,0,12,0,,,,,,,,,,,,,,,,,,,,,,,,,Listen to the question and speak out your answer!,1884.106518983841,None,1884.0898488998414,1886.1066229343414,An der nächsten Kreuzung müssen Sie rechts abbiegen.,abbiegen,1885.4565705776215,None,1888.6900686740876,None,1900.6574255943299,None,1902.0740599632263,None,./data/Subject_01/Session_01/Exp_data/2020_Jul_06_1646/rec_QA_run_00_block_001_trial_012.wav,01,01,English,A2,True,False,True,False,False,True,True,True,True,True,True,True,No,No,No,No,No,No,2020_Jul_06_1646,nibs_stage_1,3.2.3,59.83468905050344,
0,0,0,0,1,0,1,0,13,0,13,0,,,,,,,,,,,,,,,,,,,,,,,,,Listen to the question and speak out your answer!,1905.1243209838867,None,1905.1075757980348,1907.1242969036102,"Der Mann läuft zu schell, um die Post zu schicken.",schicken,1906.4743256092072,None,1909.7411126613617,1910.7577548027039,1921.67505068779,None,1923.0917069911957,None,./data/Subject_01/Session_01/Exp_data/2020_Jul_06_1646/rec_QA_run_00_block_001_trial_013.wav,01,01,English,A2,True,False,True,False,False,True,True,True,True,True,True,True,No,No,No,No,No,No,2020_Jul_06_1646,nibs_stage_1,3.2.3,59.83468905050344,
0,0,0,0,1,0,1,0,14,0,14,0,,,,,,,,,,,,,,,,,,,,,,,,,Listen to the question and speak out your answer!,1926.1587178707123,None,1926.1253057956696,1928.158725976944,Dieser Bus bringt dich zum Strand.,bringt,1927.5086307048798,None,1929.9422516345978,1930.9588768482208,1942.7094366073609,None,1944.126205921173,None,./data/Subject_01/Session_01/Exp_data/2020_Jul_06_1646/rec_QA_run_00_block_001_trial_014.wav,01,01,English,A2,True,False,True,False,False,True,True,True,True,True,True,True,No,No,No,No,No,No,2020_Jul_06_1646,nibs_stage_1,3.2.3,59.83468905050344,
0,0,0,0,1,0,1,0,15,0,15,0,,,,,,,,,,,,,,,,,,,,,,,,,Listen to the question and speak out your answer!,1947.1931219100952,None,1947.159719848633,1949.1932258605957,Die Medien und Reporter sollten die Wahrheit berichten.,berichten,1948.5764507770539,1951.6933538913727,1952.0765947818757,1953.0933139324188,1963.7771906375885,None,1965.1939318180084,None,./data/Subject_01/Session_01/Exp_data/2020_Jul_06_1646/rec_QA_run_00_block_001_trial_015.wav,01,01,English,A2,True,False,True,False,False,True,True,True,True,True,True,True,No,No,No,No,No,No,2020_Jul_06_1646,nibs_stage_1,3.2.3,59.83468905050344,
0,0,0,0,1,0,1,0,16,0,16,0,,,,,,,,,,,,,,,,,,,,,,,,,Listen to the question and speak out your answer!,1968.1947309970856,None,1968.1774370193482,1970.1943049430847,"Wie lange benötigt die Erde, um die Sonne zu umrunden?",benötigt,1969.5774876594544,1973.127688884735,1973.5110036849976,None,1984.7782797336579,None,1986.1949927806854,None,./data/Subject_01/Session_01/Exp_data/2020_Jul_06_1646/rec_QA_run_00_block_001_trial_016.wav,01,01,English,A2,True,False,True,False,False,True,True,True,True,True,True,True,No,No,No,No,No,No,2020_Jul_06_1646,nibs_stage_1,3.2.3,59.83468905050344,
0,0,0,0,1,0,1,0,17,0,17,0,,,,,,,,,,,,,,,,,,,,,,,,,Listen to the question and speak out your answer!,1989.2290329933167,None,1989.2119512081147,1991.2285540103912,Dank genügend Sonnenschein und Wasser können im Amazonaswald riesige Bäume wachsen.,wachsen,1990.6119296073914,1995.7288208007812,1996.0788146972657,1997.0955369472504,2005.8126716136933,2006.8293838500977,2007.2293918132782,None,./data/Subject_01/Session_01/Exp_data/2020_Jul_06_1646/rec_QA_run_00_block_001_trial_017.wav,01,01,English,A2,True,False,True,False,False,True,True,True,True,True,True,True,No,No,No,No,No,No,2020_Jul_06_1646,nibs_stage_1,3.2.3,59.83468905050344,
0,0,0,0,1,0,1,0,18,0,18,0,,,,,,,,,,,,,,,,,,,,,,,,,Listen to the question and speak out your answer!,2010.2631208896637,None,2010.246233177185,2012.2629759311676,Wir haben während des Urlaubs ein gemütliches Zimmer in Meeresnähe gemietet.,gemietet,2011.6462406635285,None,2016.5465206623078,None,2026.8470305919648,None,2028.2637968063354,None,./data/Subject_01/Session_01/Exp_data/2020_Jul_06_1646/rec_QA_run_00_block_001_trial_018.wav,01,01,English,A2,True,False,True,False,False,True,True,True,True,True,True,True,No,No,No,No,No,No,2020_Jul_06_1646,nibs_stage_1,3.2.3,59.83468905050344,
0,0,0,0,1,0,1,0,19,0,19,0,,,,,,,,,,,,,,,,,,,,,,,,,Listen to the question and speak out your answer!,2031.314255952835,None,2031.2973119258882,2033.314038991928,Bitte bilden Sie einfache Sätze.,bilden,2032.6973475933075,None,2035.1974718093873,None,2047.8981167793274,2048.914848804474,2049.3148698806763,None,./data/Subject_01/Session_01/Exp_data/2020_Jul_06_1646/rec_QA_run_00_block_001_trial_019.wav,01,01,English,A2,True,False,True,False,False,True,True,True,True,True,True,True,No,No,No,No,No,No,2020_Jul_06_1646,nibs_stage_1,3.2.3,59.83468905050344,
0,0,0,0,1,0,1,0,20,0,20,0,,,,,,,,,,,,,,,,,,,,,,,,,Listen to the question and speak out your answer!,2052.365067958832,None,2052.348395967483,2054.365119934082,Jeden Tag lesen wir die Zeitung.,lesen,2053.74843378067,2055.99854183197,2056.381936740875,None,2068.949197721481,None,2070.365959882736,None,./data/Subject_01/Session_01/Exp_data/2020_Jul_06_1646/rec_QA_run_00_block_001_trial_020.wav,01,01,English,A2,True,False,True,False,False,True,True,True,True,True,True,True,No,No,No,No,No,No,2020_Jul_06_1646,nibs_stage_1,3.2.3,59.83468905050344,
0,0,0,0,1,0,1,0,21,0,21,0,,,,,,,,,,,,,,,,,,,,,,,,,Listen to the question and speak out your answer!,2073.4328439235687,None,2073.399441862106,2075.4328429698944,Bananen können wir in der Obstabteilung finden.,finden,2074.8162807941435,2077.7662918567657,2078.1163017272947,None,2090.0169286251066,None,2091.4337129592896,None,./data/Subject_01/Session_01/Exp_data/2020_Jul_06_1646/rec_QA_run_00_block_001_trial_021.wav,01,01,English,A2,True,False,True,False,False,True,True,True,True,True,True,True,No,No,No,No,No,No,2020_Jul_06_1646,nibs_stage_1,3.2.3,59.83468905050344,
0,0,0,0,1,0,1,0,22,0,22,0,,,,,,,,,,,,,,,,,,,,,,,,,Listen to the question and speak out your answer!,2094.4505817890167,None,2094.4338358879086,2096.4506030082703,Jetzt will ich eine Vorstellung machen.,machen,2095.833910655975,None,2098.3673707962034,None,2111.034656715393,2112.0514199733734,2112.45143699646,None,./data/Subject_01/Session_01/Exp_data/2020_Jul_06_1646/rec_QA_run_00_block_001_trial_022.wav,01,01,English,A2,True,False,True,False,False,True,True,True,True,True,True,True,No,No,No,No,No,No,2020_Jul_06_1646,nibs_stage_1,3.2.3,59.83468905050344,
0,0,0,0,1,0,1,0,23,0,23,0,,,,,,,,,,,,,,,,,,,,,,,,,Listen to the question and speak out your answer!,2115.4850018024445,None,2115.4516269206997,2117.48491191864,"Wir sollten in den Bus einsteigen, bevor er abfährt.",einsteigen,2116.8683077812193,2119.9517920017242,2120.3350877285,2121.3518738746643,2132.0690557479857,None,2133.4858129024506,None,./data/Subject_01/Session_01/Exp_data/2020_Jul_06_1646/rec_QA_run_00_block_001_trial_023.wav,01,01,English,A2,True,False,True,False,False,True,True,True,True,True,True,True,No,No,No,No,No,No,2020_Jul_06_1646,nibs_stage_1,3.2.3,59.83468905050344,
0,0,0,0,1,0,1,0,24,0,24,0,,,,,,,,,,,,,,,,,,,,,,,,,Listen to the question and speak out your answer!,2136.569568872452,None,2136.552660179138,2138.569399833679,"Sie scheinen nicht zu wissen, mit wem Sie es zu tun haben.",scheinen,2137.952704620361,2141.4028899669647,2141.7862317085264,None,2153.153459739685,None,2154.5702459812164,None,./data/Subject_01/Session_01/Exp_data/2020_Jul_06_1646/rec_QA_run_00_block_001_trial_024.wav,01,01,English,A2,True,False,True,False,False,True,True,True,True,True,True,True,No,No,No,No,No,No,2020_Jul_06_1646,nibs_stage_1,3.2.3,59.83468905050344,
