run.thisRepN,run.thisTrialN,run.thisN,run.thisIndex,artifact_trial.thisRepN,artifact_trial.thisTrialN,artifact_trial.thisN,artifact_trial.thisIndex,QA_block.thisRepN,QA_block.thisTrialN,QA_block.thisN,QA_block.thisIndex,QA_trial.thisRepN,QA_trial.thisTrialN,QA_trial.thisN,QA_trial.thisIndex,fade_in_text.text,fade_in_text.started,fade_in_text.stopped,Artifact_intro_title.started,Artifact_intro_title.stopped,Artifact_intro_text.text,Artifact_intro_text.started,Artifact_intro_text.stopped,Artifact_intro_audio.started,Artifact_intro_audio.stopped,Artifact_intro_cont.started,Artifact_intro_cont.stopped,Artifact_rec_text.text,Artifact_rec_text.started,Artifact_rec_text.stopped,Artifact_rec_beep_hint.started,Artifact_rec_beep_hint.stopped,Artifact_rec_action.started,Artifact_rec_action.stopped,Artifact_rec_beep_start.started,Artifact_rec_beep_start.stopped,Artifact_rec_recording.started,Artifact_rec_recording.stopped,Artifact_rec_beep_end.started,Artifact_rec_beep_end.stopped,Artifact_rec_break.started,Artifact_rec_break.stopped,RS_intro_title.started,RS_intro_title.stopped,RS_intro_text.text,RS_intro_text.started,RS_intro_text.stopped,RS_intro_audio.started,RS_intro_audio.stopped,RS_rec_text.text,RS_rec_text.started,RS_rec_text.stopped,Pause_cont.started,Pause_cont.stopped,QA_intro_title.started,QA_intro_title.stopped,QA_intro_text.text,QA_intro_text.started,QA_intro_text.stopped,QA_intro_audio.started,QA_intro_audio.stopped,QA_intro_cont.started,QA_intro_cont.stopped,QA_rec_text.text,QA_rec_text.started,QA_rec_text.stopped,QA_rec_beep_hint.started,QA_rec_beep_hint.stopped,QA_rec_question.sen_text,QA_rec_question.cen_text,QA_rec_question.started,QA_rec_question.stopped,QA_rec_beep_start.started,QA_rec_beep_start.stopped,QA_rec_beep_end.started,QA_rec_beep_end.stopped,QA_rec_break.started,QA_rec_break.stopped,filename,fade_out_text.text,fade_out_text.started,fade_out_text.stopped,participant,session,First language,German level,Full_screen,Instruction,Intro,Artifact,Cali_pre,Fade_in_out,Artifact_within,Resting_State,QA,Pause,Cali_post,End,Breakpoint_Cali_pre_trial,Breakpoint_Run,Breakpoint_RS_block,Breakpoint_QA_block,Breakpoint_QA_trial,Breakpoint_Cali_post_trial,date,expName,psychopyVersion,frameRate,
2,0,2,0,0,0,0,0,,,,,,,,,Please remain seated until further instruction via the earphone.,61.02712392807007,None,63.0439350605011,None,"  - Task: Artifacts collection   
  - Please follow audio instruction              
",63.0439350605011,None,63.046165800094606,None,89.44540691375732,None,,91.47898197174072,None,91.46444878578185,93.47886991500854,92.86229834556579,None,96.26245937347412,None,97.66271123886108,107.66307806968689,108.06314620971679,109.06318211555481,109.4633309841156,110.46318006515503,,,,,,,,,,,,,,,,,,,,,,,,,,,,,,,,,,,,,,,,,01,01,English,A2,True,False,True,False,False,True,True,True,True,True,True,True,No,2,No,No,No,No,2020_Jul_06_1802,nibs_stage_1,3.2.3,60.02976940163503,
2,0,2,0,1,0,1,0,,,,,,,,,,,,,,,,,,,,,,113.48018002510071,None,113.48234901428222,115.4970850944519,114.86373839378356,None,118.26397023200988,None,119.66391930580139,129.66435194015503,130.06438336372375,None,131.46438598632812,132.46450805664062,,,,,,,,,,,,,,,,,,,,,,,,,,,,,,,,,,,,,,,,,01,01,English,A2,True,False,True,False,False,True,True,True,True,True,True,True,No,2,No,No,No,No,2020_Jul_06_1802,nibs_stage_1,3.2.3,60.02976940163503,
2,0,2,0,2,0,2,0,,,,,,,,,,,,,,,,,,,,,,135.4980800151825,135.4980800151825,135.48360595703124,137.49813199043274,136.8814314365387,None,140.28162727355956,None,141.6817084312439,151.68225193023682,152.08228526115417,None,153.482351064682,154.48253512382507,,,,,,,,,,,,,,,,,,,,,,,,,,,,,,,,,,,,,,,,,01,01,English,A2,True,False,True,False,False,True,True,True,True,True,True,True,No,2,No,No,No,No,2020_Jul_06_1802,nibs_stage_1,3.2.3,60.02976940163503,
2,0,2,0,3,0,3,0,,,,,,,,,,,,,,,,,,,,,,157.49925804138184,None,157.50143489837646,159.51604104042053,158.88267621994018,None,162.26612029075622,163.2662489414215,163.66630325317382,173.66674613952637,174.06697521209716,None,175.46693897247314,176.46700596809387,,,,,,,,,,,,,,,,,,,,,,,,,,,,,,,,,,,,,,,,,01,01,English,A2,True,False,True,False,False,True,True,True,True,True,True,True,No,2,No,No,No,No,2020_Jul_06_1802,nibs_stage_1,3.2.3,60.02976940163503,
2,0,2,0,4,0,4,0,,,,,,,,,,,,,,,,,,,,,,179.51726698875427,179.51726698875427,179.50266799926757,181.51727509498596,180.9006043434143,None,184.30078825950622,None,185.70086441040038,195.7013931274414,196.1014452934265,None,197.50150513648987,198.5015571117401,,,,,,,,,,,,,,,,,,,,,,,,,,,,,,,,,,,,,,,,,01,01,English,A2,True,False,True,False,False,True,True,True,True,True,True,True,No,2,No,No,No,No,2020_Jul_06_1802,nibs_stage_1,3.2.3,60.02976940163503,
2,0,2,0,5,0,5,0,,,,,,,,,,,,,,,,,,,,,,201.5185830593109,None,201.5206759929657,203.53543996810913,202.902095413208,None,206.30240926742553,207.30226612091064,207.70230827331542,217.70290613174438,218.10294923782348,None,219.5030460357666,220.50308895111084,,,,,,,,,,,,,,,,,,,,,,,,,,,,,,,,,,,,,,,,,01,01,English,A2,True,False,True,False,False,True,True,True,True,True,True,True,No,2,No,No,No,No,2020_Jul_06_1802,nibs_stage_1,3.2.3,60.02976940163503,
2,0,2,0,6,0,6,0,,,,,,,,,,,,,,,,,,,,,,223.5364429950714,223.5364429950714,223.5221408367157,225.53662490844727,224.9200523853302,None,228.3200744152069,229.32017707824707,229.72025022506713,239.72094297409058,240.12079439163207,None,241.5208580493927,242.5209460258484,,,,,,,,,,,,,,,,,,,,,,,,,,,,,,,,,,,,,,,,,01,01,English,A2,True,False,True,False,False,True,True,True,True,True,True,True,No,2,No,No,No,No,2020_Jul_06_1802,nibs_stage_1,3.2.3,60.02976940163503,
2,0,2,0,7,0,7,0,,,,,,,,,,,,,,,,,,,,,,245.53761410713196,None,245.54001579284667,247.55455613136292,246.9211953639984,249.92134499549866,250.32142434120178,251.32144498825073,251.7214714050293,261.7219400405884,262.12226328849795,None,263.52211594581604,264.52216601371765,,,,,,,,,,,,,,,,,,,,,,,,,,,,,,,,,,,,,,,,,01,01,English,A2,True,False,True,False,False,True,True,True,True,True,True,True,No,2,No,No,No,No,2020_Jul_06_1802,nibs_stage_1,3.2.3,60.02976940163503,
2,0,2,0,8,0,8,0,,,,,,,,,,,,,,,,,,,,,,267.55569791793823,267.55569791793823,267.5411888122559,269.5558090209961,268.9392453193665,271.9392840862274,272.3395133972168,273.33933210372925,273.73935732841494,283.73990511894226,284.1399494171143,None,285.5400149822235,286.5400459766388,,,,,,,,,,,,,,,,,,,,,,,,,,,,,,,,,,,,,,,,,01,01,English,A2,True,False,True,False,False,True,True,True,True,True,True,True,No,2,No,No,No,No,2020_Jul_06_1802,nibs_stage_1,3.2.3,60.02976940163503,
2,0,2,0,9,0,9,0,,,,,,,,,,,,,,,,,,,,,,289.5567190647125,None,289.55918488502505,291.5736880302429,290.94027338027956,293.94048404693604,294.34053740501406,295.3404459953308,295.74057230949404,305.741140127182,306.14117941856387,None,307.5411739349365,308.54130005836487,,,,,,,,,,,,,,,,,,,,,,,,,,,,,,,,,,,,,,,,,01,01,English,A2,True,False,True,False,False,True,True,True,True,True,True,True,No,2,No,No,No,No,2020_Jul_06_1802,nibs_stage_1,3.2.3,60.02976940163503,
2,0,2,0,10,0,10,0,,,,,,,,,,,,,,,,,,,,,,311.5747480392456,311.5747480392456,311.5604189395905,313.5749509334564,312.9582563400269,None,316.35837826728823,317.3584280014038,317.75846729278567,327.75902795791626,328.15907821655276,329.1591420173645,329.5591719150543,330.5591869354248,,,,,,,,,,,,,,,,,,,,,,,,,,,,,,,,,,,,,,,,,01,01,English,A2,True,False,True,False,False,True,True,True,True,True,True,True,No,2,No,No,No,No,2020_Jul_06_1802,nibs_stage_1,3.2.3,60.02976940163503,
2,0,2,0,11,0,11,0,,,,,,,,,,,,,,,,,,,,,,333.57579803466797,None,333.578296995163,335.59247493743896,334.9592064380646,None,338.35939440727236,None,339.7595802307129,349.76000213623047,350.1600383281708,351.1602120399475,351.5600299835205,352.56009006500244,,,,,,,,,,,,,,,,,,,,,,,,,,,,,,,,,,,,,,,,,01,01,English,A2,True,False,True,False,False,True,True,True,True,True,True,True,No,2,No,No,No,No,2020_Jul_06_1802,nibs_stage_1,3.2.3,60.02976940163503,
2,0,2,0,12,0,12,0,,,,,,,,,,,,,,,,,,,,,,355.59377694129944,355.59377694129944,355.57925686836245,357.5938000679016,356.97702226638796,359.9771571159363,360.3772252559662,None,361.7772842407227,371.7779140472412,372.17792830467226,373.1779839992523,373.578006029129,374.57804799079895,,,,,,,,,,,,,,,,,,,,,,,,,,,,,,,,,,,,,,,,,01,01,English,A2,True,False,True,False,False,True,True,True,True,True,True,True,No,2,No,No,No,No,2020_Jul_06_1802,nibs_stage_1,3.2.3,60.02976940163503,
2,0,2,0,13,0,13,0,,,,,,,,,,,,,,,,,,,,,,377.5949490070343,None,377.59709296226504,379.6116991043091,378.9783314228058,None,382.3784652709961,None,383.77859530448916,393.7790689468384,394.17909226417544,395.17922806739807,395.57924795150757,396.57938408851624,,,,,,,,,,,,,,,,,,,,,,,,,,,,,,,,,,,,,,,,,01,01,English,A2,True,False,True,False,False,True,True,True,True,True,True,True,No,2,No,No,No,No,2020_Jul_06_1802,nibs_stage_1,3.2.3,60.02976940163503,
2,0,2,0,14,0,14,0,,,,,,,,,,,,,,,,,,,,,,399.61286997795105,399.61286997795105,399.5982869625092,401.6128919124603,400.99618730545046,None,404.39629635810854,None,405.7964752674103,415.7971029281616,416.1970532894135,417.1970989704132,417.59711599349976,418.59715700149536,,,,,,,,,,,,,,,,,,,,,,,,,,,,,,,,,,,,,,,,,01,01,English,A2,True,False,True,False,False,True,True,True,True,True,True,True,No,2,No,No,No,No,2020_Jul_06_1802,nibs_stage_1,3.2.3,60.02976940163503,
2,0,2,0,,,,,0,0,0,0,0,0,0,0,,,,,,,,,,,,,,,,,,,,,,,,,,,,629.042062997818,None," - Task: Keep seated and relaxed with either      
             opening or closing eyes                  
 - Beep sound with decreasing pitch: Block finish 
",629.042062997818,None,629.027896976471,None,"Please keep relaxed and close your eyes.
",652.0599970817566,832.0699369907379,835.4701590538025,None,858.7880079746246,898.8067169189453," - Task: Listen to the question& Speak out answer 
 - Melodious beep sound: Trial start              
 - Silent sound (blank): censored word            
 - Beep sound with increasing pitch: Rec. start   
 - Beep sound with decreasing pitch: Rec. finish  
",858.7880079746246,898.8067169189453,858.7912817955017,None,898.1733419895172,None,Listen to the question and speak out your answer!,902.0236160755157,None,902.0102900981904,904.0236690044403,Er hat die Verbindung zwischen zwei Zufälligkeiten hergestellt.,hergestellt,903.4069932460785,907.0738470554352,907.4906652927399,None,918.6078454017639,None,920.0245320796967,None,./data/Subject_01/Session_01/Exp_data/2020_Jul_06_1802/rec_QA_run_02_block_000_trial_000.wav,,,,01,01,English,A2,True,False,True,False,False,True,True,True,True,True,True,True,No,2,No,No,No,No,2020_Jul_06_1802,nibs_stage_1,3.2.3,60.02976940163503,
2,0,2,0,,,,,0,0,0,0,1,0,1,0,,,,,,,,,,,,,,,,,,,,,,,,,,,,,,,,,,,,,,,,,,,,,,,,,Listen to the question and speak out your answer!,923.0749950408936,None,923.0603131771088,925.1081449985504,Auf einer CD sind der Musik oder gesprochener Text gespeichert.,gespeichert,924.458116388321,None,928.8583723068238,929.8750691413879,939.6590443611145,None,941.0756850242615,None,./data/Subject_01/Session_01/Exp_data/2020_Jul_06_1802/rec_QA_run_02_block_000_trial_001.wav,,,,01,01,English,A2,True,False,True,False,False,True,True,True,True,True,True,True,No,2,No,No,No,No,2020_Jul_06_1802,nibs_stage_1,3.2.3,60.02976940163503,
2,0,2,0,,,,,0,0,0,0,2,0,2,0,,,,,,,,,,,,,,,,,,,,,,,,,,,,,,,,,,,,,,,,,,,,,,,,,Listen to the question and speak out your answer!,944.1102941036224,None,944.094786977768,946.1426429748535,Das Eingreifen des Lehrers beendete den Streit.,beendete,945.4925874233246,None,948.9927702903748,950.0094950199127,960.6767552852631,None,962.0936279296875,None,./data/Subject_01/Session_01/Exp_data/2020_Jul_06_1802/rec_QA_run_02_block_000_trial_002.wav,,,,01,01,English,A2,True,False,True,False,False,True,True,True,True,True,True,True,No,2,No,No,No,No,2020_Jul_06_1802,nibs_stage_1,3.2.3,60.02976940163503,
2,0,2,0,,,,,0,0,0,0,3,0,3,0,,,,,,,,,,,,,,,,,,,,,,,,,,,,,,,,,,,,,,,,,,,,,,,,,Listen to the question and speak out your answer!,965.1603951454163,None,965.1292652606965,967.1604290008545,"Das Fenster ist offen, aber ich werde es schließen.",schließen,966.5437513351441,969.5604650974274,969.9439342975617,None,981.7445634365082,None,983.1612029075623,None,./data/Subject_01/Session_01/Exp_data/2020_Jul_06_1802/rec_QA_run_02_block_000_trial_003.wav,,,,01,01,English,A2,True,False,True,False,False,True,True,True,True,True,True,True,No,2,No,No,No,No,2020_Jul_06_1802,nibs_stage_1,3.2.3,60.02976940163503,
2,0,2,0,,,,,0,0,0,0,4,0,4,0,,,,,,,,,,,,,,,,,,,,,,,,,,,,,,,,,,,,,,,,,,,,,,,,,Listen to the question and speak out your answer!,986.1624159812927,None,986.1470368862152,988.1949129104614,Im botanischen Garten kann mann wir exotische Pflanzen sehen.,sehen,987.5448583126068,None,991.67843542099,None,1002.7456904411316,1003.7623851299286,1004.1626470088959,None,./data/Subject_01/Session_01/Exp_data/2020_Jul_06_1802/rec_QA_run_02_block_000_trial_004.wav,,,,01,01,English,A2,True,False,True,False,False,True,True,True,True,True,True,True,No,2,No,No,No,No,2020_Jul_06_1802,nibs_stage_1,3.2.3,60.02976940163503,
2,0,2,0,,,,,0,0,0,0,5,0,5,0,,,,,,,,,,,,,,,,,,,,,,,,,,,,,,,,,,,,,,,,,,,,,,,,,Listen to the question and speak out your answer!,1007.2294590473175,None,1007.2148654937745,1009.262689113617,"Ist es für den Vermieter möglich, den Mieter nach der Rechtslage zu kündigen?",kündigen,1008.6127713680268,1012.8962490558624,1013.2796202659607,None,1023.8135953903198,None,1025.2303199768066,None,./data/Subject_01/Session_01/Exp_data/2020_Jul_06_1802/rec_QA_run_02_block_000_trial_005.wav,,,,01,01,English,A2,True,False,True,False,False,True,True,True,True,True,True,True,No,2,No,No,No,No,2020_Jul_06_1802,nibs_stage_1,3.2.3,60.02976940163503,
2,0,2,0,,,,,0,0,0,0,6,0,6,0,,,,,,,,,,,,,,,,,,,,,,,,,,,,,,,,,,,,,,,,,,,,,,,,,Listen to the question and speak out your answer!,1028.263976097107,None,1028.2493117809295,1030.297238111496,Das Unternehmen wird nächste Woche die Jahresprämie bezahlen.,bezahlen,1029.6472273826598,1033.330764055252,1033.7140263080596,None,1044.848059272766,None,1046.264769077301,None,./data/Subject_01/Session_01/Exp_data/2020_Jul_06_1802/rec_QA_run_02_block_000_trial_006.wav,,,,01,01,English,A2,True,False,True,False,False,True,True,True,True,True,True,True,No,2,No,No,No,No,2020_Jul_06_1802,nibs_stage_1,3.2.3,60.02976940163503,
2,0,2,0,,,,,0,0,0,0,7,0,7,0,,,,,,,,,,,,,,,,,,,,,,,,,,,,,,,,,,,,,,,,,,,,,,,,,Listen to the question and speak out your answer!,1049.3318281173706,None,1049.3172445774078,1051.3650419712067,Das juristische Staatsexamen in Deutschland ist schwer zu bestehen.,bestehen,1050.7150362491607,1054.7319049835205,1055.1153272151946,None,1065.9160233497619,None,1067.3325629234314,None,./data/Subject_01/Session_01/Exp_data/2020_Jul_06_1802/rec_QA_run_02_block_000_trial_007.wav,,,,01,01,English,A2,True,False,True,False,False,True,True,True,True,True,True,True,No,2,No,No,No,No,2020_Jul_06_1802,nibs_stage_1,3.2.3,60.02976940163503,
2,0,2,0,,,,,0,0,0,0,8,0,8,0,,,,,,,,,,,,,,,,,,,,,,,,,,,,,,,,,,,,,,,,,,,,,,,,,Listen to the question and speak out your answer!,1070.3995180130005,None,1070.3682550907133,1072.3994309902191,Der Mörder wollte die Gründe für seine Tat nicht nennen.,nennen,1071.7826643943786,1074.7995910644531,1075.1828402042388,None,1086.983629322052,1088.0003111362457,1088.400377035141,None,./data/Subject_01/Session_01/Exp_data/2020_Jul_06_1802/rec_QA_run_02_block_000_trial_008.wav,,,,01,01,English,A2,True,False,True,False,False,True,True,True,True,True,True,True,No,2,No,No,No,No,2020_Jul_06_1802,nibs_stage_1,3.2.3,60.02976940163503,
2,0,2,0,,,,,0,0,0,0,9,0,9,0,,,,,,,,,,,,,,,,,,,,,,,,,,,,,,,,,,,,,,,,,,,,,,,,,Listen to the question and speak out your answer!,1091.4175970554352,None,1091.402795267105,1093.4505770206451,Herr Becker hat den Zug nach Deutschland genommen.,genommen,1092.8005684375762,1095.4176759719849,1095.8007133960723,None,1108.0013674259185,None,1109.4181079864502,None,./data/Subject_01/Session_01/Exp_data/2020_Jul_06_1802/rec_QA_run_02_block_000_trial_009.wav,,,,01,01,English,A2,True,False,True,False,False,True,True,True,True,True,True,True,No,2,No,No,No,No,2020_Jul_06_1802,nibs_stage_1,3.2.3,60.02976940163503,
2,0,2,0,,,,,0,0,0,0,10,0,10,0,,,,,,,,,,,,,,,,,,,,,,,,,,,,,,,,,,,,,,,,,,,,,,,,,Listen to the question and speak out your answer!,1112.4521961212158,None,1112.4371999263763,1114.4850270748138,Die Näherin hat ein Kleid für den Abschlussball genäht.,genäht,1113.8350192070006,None,1117.3352323532104,None,1129.0358253479003,None,1130.4525589942932,None,./data/Subject_01/Session_01/Exp_data/2020_Jul_06_1802/rec_QA_run_02_block_000_trial_010.wav,,,,01,01,English,A2,True,False,True,False,False,True,True,True,True,True,True,True,No,2,No,No,No,No,2020_Jul_06_1802,nibs_stage_1,3.2.3,60.02976940163503,
2,0,2,0,,,,,0,0,0,0,11,0,11,0,,,,,,,,,,,,,,,,,,,,,,,,,,,,,,,,,,,,,,,,,,,,,,,,,Listen to the question and speak out your answer!,1133.5195169448853,None,1133.4883431911467,1135.5195031166077,"Dem Patienten geht es viel besser, so dass der Arzt ihm das Rauchen erlaubte.",erlaubte,1134.902819252014,None,1139.8364144325255,None,1150.1036523342132,1151.1203610897064,1151.5205249786377,None,./data/Subject_01/Session_01/Exp_data/2020_Jul_06_1802/rec_QA_run_02_block_000_trial_011.wav,,,,01,01,English,A2,True,False,True,False,False,True,True,True,True,True,True,True,No,2,No,No,No,No,2020_Jul_06_1802,nibs_stage_1,3.2.3,60.02976940163503,
2,0,2,0,,,,,0,0,0,0,12,0,12,0,,,,,,,,,,,,,,,,,,,,,,,,,,,,,,,,,,,,,,,,,,,,,,,,,Listen to the question and speak out your answer!,1154.554121017456,None,1154.5394864559173,1156.5872979164124,"Du kannst den Hund streicheln, er wird dich nicht beißen.",beißen,1155.937295293808,1158.9543979167938,1159.3374782562255,1160.3541719913483,1171.1381143093108,1172.1548099517822,1172.5548150539398,None,./data/Subject_01/Session_01/Exp_data/2020_Jul_06_1802/rec_QA_run_02_block_000_trial_012.wav,,,,01,01,English,A2,True,False,True,False,False,True,True,True,True,True,True,True,No,2,No,No,No,No,2020_Jul_06_1802,nibs_stage_1,3.2.3,60.02976940163503,
2,0,2,0,,,,,0,0,0,0,13,0,13,0,,,,,,,,,,,,,,,,,,,,,,,,,,,,,,,,,,,,,,,,,,,,,,,,,Listen to the question and speak out your answer!,1175.5894739627838,None,1175.573940849304,1177.6218061447144,"Ich muss meinen Nachnamen oft langsam buchstabieren, weil er zu selten ist.",buchstabieren,1176.9717582225799,None,1181.83864030838,None,1192.1725903511046,None,1193.5893340110779,None,./data/Subject_01/Session_01/Exp_data/2020_Jul_06_1802/rec_QA_run_02_block_000_trial_013.wav,,,,01,01,English,A2,True,False,True,False,False,True,True,True,True,True,True,True,No,2,No,No,No,No,2020_Jul_06_1802,nibs_stage_1,3.2.3,60.02976940163503,
2,0,2,0,,,,,0,0,0,0,14,0,14,0,,,,,,,,,,,,,,,,,,,,,,,,,,,,,,,,,,,,,,,,,,,,,,,,,Listen to the question and speak out your answer!,1196.656464099884,None,1196.641810464859,1198.689600944519,Wir haben die Buchung per E-Mail bestätigt.,bestätigt,1198.0395892620086,None,1200.9730764389037,None,1213.2403074264525,None,1214.6570529937744,None,./data/Subject_01/Session_01/Exp_data/2020_Jul_06_1802/rec_QA_run_02_block_000_trial_014.wav,,,,01,01,English,A2,True,False,True,False,False,True,True,True,True,True,True,True,No,2,No,No,No,No,2020_Jul_06_1802,nibs_stage_1,3.2.3,60.02976940163503,
2,0,2,0,,,,,0,0,0,0,15,0,15,0,,,,,,,,,,,,,,,,,,,,,,,,,,,,,,,,,,,,,,,,,,,,,,,,,Listen to the question and speak out your answer!,1217.6914150714874,None,1217.6762209892272,1219.724065065384,Er sieht endlich ein Licht am Ende des Tunnels.,sieht,1219.074047422409,1221.757395029068,1222.1408663749694,1223.1575751304626,1234.2748774051665,None,1235.691556930542,None,./data/Subject_01/Session_01/Exp_data/2020_Jul_06_1802/rec_QA_run_02_block_000_trial_015.wav,,,,01,01,English,A2,True,False,True,False,False,True,True,True,True,True,True,True,No,2,No,No,No,No,2020_Jul_06_1802,nibs_stage_1,3.2.3,60.02976940163503,
2,0,2,0,,,,,0,0,0,0,16,0,16,0,,,,,,,,,,,,,,,,,,,,,,,,,,,,,,,,,,,,,,,,,,,,,,,,,Listen to the question and speak out your answer!,1238.7585139274597,None,1238.727356147766,1240.7585339546204,"Hiermit wird bestätigt, dass Frau Müller das Praktikum bei uns absolviert hat.",bestätigt,1240.1418572425841,1244.7254030704498,1245.1087823867797,None,1255.3426533699035,1256.359367132187,1256.7593829631805,None,./data/Subject_01/Session_01/Exp_data/2020_Jul_06_1802/rec_QA_run_02_block_000_trial_016.wav,,,,01,01,English,A2,True,False,True,False,False,True,True,True,True,True,True,True,No,2,No,No,No,No,2020_Jul_06_1802,nibs_stage_1,3.2.3,60.02976940163503,
2,0,2,0,,,,,0,0,0,0,17,0,17,0,,,,,,,,,,,,,,,,,,,,,,,,,,,,,,,,,,,,,,,,,,,,,,,,,Listen to the question and speak out your answer!,1259.7598929405212,None,1259.745138978958,1261.792993068695,"Es ist vorstellbar, dass er diese schwierige Prüfung nicht bestehen kann. ",bestehen,1261.1429842472076,1265.2931830883026,1265.6765423774718,None,1276.3437753677367,1277.3605279922485,1277.76051902771,None,./data/Subject_01/Session_01/Exp_data/2020_Jul_06_1802/rec_QA_run_02_block_000_trial_017.wav,,,,01,01,English,A2,True,False,True,False,False,True,True,True,True,True,True,True,No,2,No,No,No,No,2020_Jul_06_1802,nibs_stage_1,3.2.3,60.02976940163503,
2,0,2,0,,,,,0,0,0,0,18,0,18,0,,,,,,,,,,,,,,,,,,,,,,,,,,,,,,,,,,,,,,,,,,,,,,,,,Listen to the question and speak out your answer!,1280.8109209537506,None,1280.7962812900541,1282.844202041626,Junge Leute machen gerne Partys.,machen,1282.1940842628478,None,1285.0609303474425,None,1297.3948212623595,None,1298.8117051124573,None,./data/Subject_01/Session_01/Exp_data/2020_Jul_06_1802/rec_QA_run_02_block_000_trial_018.wav,,,,01,01,English,A2,True,False,True,False,False,True,True,True,True,True,True,True,No,2,No,No,No,No,2020_Jul_06_1802,nibs_stage_1,3.2.3,60.02976940163503,
2,0,2,0,,,,,0,0,0,0,19,0,19,0,,,,,,,,,,,,,,,,,,,,,,,,,,,,,,,,,,,,,,,,,,,,,,,,,Listen to the question and speak out your answer!,1301.878410100937,None,1301.8474752426146,1303.8785419464111,Man bezahlt für den Naturschutz.,bezahlt,1303.2618154048919,None,1305.7286652088164,None,1318.462716436386,None,1319.879338979721,None,./data/Subject_01/Session_01/Exp_data/2020_Jul_06_1802/rec_QA_run_02_block_000_trial_019.wav,,,,01,01,English,A2,True,False,True,False,False,True,True,True,True,True,True,True,No,2,No,No,No,No,2020_Jul_06_1802,nibs_stage_1,3.2.3,60.02976940163503,
2,0,2,0,,,,,0,0,0,0,20,0,20,0,,,,,,,,,,,,,,,,,,,,,,,,,,,,,,,,,,,,,,,,,,,,,,,,,Listen to the question and speak out your answer!,1322.879909992218,None,1322.8651789188384,1324.9130370616913,Die Sonnenbrillen kann die Augen vor der Sonne schützen.,schützen,1324.263012266159,1327.2799360752106,1327.663100337982,None,1339.4638772964477,None,1340.8805060386658,None,./data/Subject_01/Session_01/Exp_data/2020_Jul_06_1802/rec_QA_run_02_block_000_trial_020.wav,,,,01,01,English,A2,True,False,True,False,False,True,True,True,True,True,True,True,No,2,No,No,No,No,2020_Jul_06_1802,nibs_stage_1,3.2.3,60.02976940163503,
2,0,2,0,,,,,0,0,0,0,21,0,21,0,,,,,,,,,,,,,,,,,,,,,,,,,,,,,,,,,,,,,,,,,,,,,,,,,Listen to the question and speak out your answer!,1343.9475100040436,None,1343.9163631916044,1345.947508096695,"Ich darf Sie bitten, meinem Antrag zu entsprechen.",bitten,1345.3308492660522,None,1348.5310092926024,1349.5476610660553,1360.531681394577,None,1361.9483480453491,None,./data/Subject_01/Session_01/Exp_data/2020_Jul_06_1802/rec_QA_run_02_block_000_trial_021.wav,,,,01,01,English,A2,True,False,True,False,False,True,True,True,True,True,True,True,No,2,No,No,No,No,2020_Jul_06_1802,nibs_stage_1,3.2.3,60.02976940163503,
2,0,2,0,,,,,0,0,0,0,22,0,22,0,,,,,,,,,,,,,,,,,,,,,,,,,,,,,,,,,,,,,,,,,,,,,,,,,Listen to the question and speak out your answer!,1364.9496159553528,None,1364.9341197967528,1366.9819400310516,Am Strand spielt ständig laute Musik.,spielt,1366.3320232391357,1368.9153680801392,1369.298789358139,None,1381.5327874183654,1382.5494940280914,1382.9495689868927,None,./data/Subject_01/Session_01/Exp_data/2020_Jul_06_1802/rec_QA_run_02_block_000_trial_022.wav,,,,01,01,English,A2,True,False,True,False,False,True,True,True,True,True,True,True,No,2,No,No,No,No,2020_Jul_06_1802,nibs_stage_1,3.2.3,60.02976940163503,
2,0,2,0,,,,,0,0,0,0,23,0,23,0,,,,,,,,,,,,,,,,,,,,,,,,,,,,,,,,,,,,,,,,,,,,,,,,,Listen to the question and speak out your answer!,1386.0164279937744,None,1385.9853002548216,1388.0164420604706,Hans und Tina heirateten am Donnerstag in der Kirche.,heirateten,1387.3997593879699,None,1391.433311319351,1392.4500110149384,1402.6005843639373,1403.6173679828644,1404.0171990394592,None,./data/Subject_01/Session_01/Exp_data/2020_Jul_06_1802/rec_QA_run_02_block_000_trial_023.wav,,,,01,01,English,A2,True,False,True,False,False,True,True,True,True,True,True,True,No,2,No,No,No,No,2020_Jul_06_1802,nibs_stage_1,3.2.3,60.02976940163503,
2,0,2,0,,,,,0,0,0,0,24,0,24,0,,,,,,,,,,,,,,,,,,,,,,,,,,,,,,,,,,,,,,,,,,,,,,,,,Listen to the question and speak out your answer!,1407.0179920196533,None,1407.0030900001525,1409.0508921146393,Mit dieser neuen Kamera kann man bei jedem Licht fotografieren.,fotografieren,1408.4008604049682,1412.1844170093536,1412.5677703380584,None,1423.6016603469848,1424.6183941364288,1425.0182909965515,None,./data/Subject_01/Session_01/Exp_data/2020_Jul_06_1802/rec_QA_run_02_block_000_trial_024.wav,,,,01,01,English,A2,True,False,True,False,False,True,True,True,True,True,True,True,No,2,No,No,No,No,2020_Jul_06_1802,nibs_stage_1,3.2.3,60.02976940163503,
2,0,2,0,,,,,0,0,0,0,,,,,,,,,,,,,,,,,,,,,,,,,,,,,,,,,,,,,,,,,,1429.0687141418457,None,,,,,,,,,,,,,,,,,,,,,,,,,,,,,01,01,English,A2,True,False,True,False,False,True,True,True,True,True,True,True,No,2,No,No,No,No,2020_Jul_06_1802,nibs_stage_1,3.2.3,60.02976940163503,
2,0,2,0,,,,,1,0,1,0,0,0,0,0,,,,,,,,,,,,,,,,,,,,,,,,,,,,,,,,,,,,,,,,,,,,,,,,,Listen to the question and speak out your answer!,1450.7367329597473,None,1450.7232091903686,1452.7698850631714,Er kann fast so gut Fahrrad fahren wie sein älterer Bruder.,fahren,1452.119852399826,1455.9367201328278,1456.286757326126,1457.303456068039,1467.3206952571868,None,1468.7374210357666,None,./data/Subject_01/Session_01/Exp_data/2020_Jul_06_1802/rec_QA_run_02_block_001_trial_000.wav,,,,01,01,English,A2,True,False,True,False,False,True,True,True,True,True,True,True,No,2,No,No,No,No,2020_Jul_06_1802,nibs_stage_1,3.2.3,60.02976940163503,
2,0,2,0,,,,,1,0,1,0,1,0,1,0,,,,,,,,,,,,,,,,,,,,,,,,,,,,,,,,,,,,,,,,,,,,,,,,,Listen to the question and speak out your answer!,1471.804503917694,None,1471.7732252597807,1473.8043730258942,"Das Essen riecht so gut, was kochst du heute?",kochst,1473.1877802371978,None,1476.3878704071044,None,1488.388481235504,None,1489.8052320480347,None,./data/Subject_01/Session_01/Exp_data/2020_Jul_06_1802/rec_QA_run_02_block_001_trial_001.wav,,,,01,01,English,A2,True,False,True,False,False,True,True,True,True,True,True,True,No,2,No,No,No,No,2020_Jul_06_1802,nibs_stage_1,3.2.3,60.02976940163503,
2,0,2,0,,,,,1,0,1,0,2,0,2,0,,,,,,,,,,,,,,,,,,,,,,,,,,,,,,,,,,,,,,,,,,,,,,,,,Listen to the question and speak out your answer!,1492.8058080673218,None,1492.7909418106078,1494.8388249874115,Ich fühle die warme Sonne auf meiner Haut.,fühle,1494.1887393951415,1496.7056210041046,1497.0890723228454,1498.1056370735168,1509.38959941864,None,1510.806342124939,None,./data/Subject_01/Session_01/Exp_data/2020_Jul_06_1802/rec_QA_run_02_block_001_trial_002.wav,,,,01,01,English,A2,True,False,True,False,False,True,True,True,True,True,True,True,No,2,No,No,No,No,2020_Jul_06_1802,nibs_stage_1,3.2.3,60.02976940163503,
2,0,2,0,,,,,1,0,1,0,3,0,3,0,,,,,,,,,,,,,,,,,,,,,,,,,,,,,,,,,,,,,,,,,,,,,,,,,Listen to the question and speak out your answer!,1513.8732559680939,None,1513.842116308212,1515.873281955719,"Der Arzt hat mir empfohlen, auf Alkohol zu verzichten.",verzichten,1515.2565902233123,1518.8401029109955,1519.2235053539275,None,1530.4574032783507,None,1531.8741130828857,None,./data/Subject_01/Session_01/Exp_data/2020_Jul_06_1802/rec_QA_run_02_block_001_trial_003.wav,,,,01,01,English,A2,True,False,True,False,False,True,True,True,True,True,True,True,No,2,No,No,No,No,2020_Jul_06_1802,nibs_stage_1,3.2.3,60.02976940163503,
2,0,2,0,,,,,1,0,1,0,4,0,4,0,,,,,,,,,,,,,,,,,,,,,,,,,,,,,,,,,,,,,,,,,,,,,,,,,Listen to the question and speak out your answer!,1534.9076600074768,None,1534.8765682697294,1536.9077279567719,Ich habe mich schon oft über den schrecklichen Service beschwert.,beschwert,1536.2911783218383,1539.6412110328674,1540.0245762825011,None,1551.4919084072112,None,1552.9085869789124,None,./data/Subject_01/Session_01/Exp_data/2020_Jul_06_1802/rec_QA_run_02_block_001_trial_004.wav,,,,01,01,English,A2,True,False,True,False,False,True,True,True,True,True,True,True,No,2,No,No,No,No,2020_Jul_06_1802,nibs_stage_1,3.2.3,60.02976940163503,
2,0,2,0,,,,,1,0,1,0,5,0,5,0,,,,,,,,,,,,,,,,,,,,,,,,,,,,,,,,,,,,,,,,,,,,,,,,,Listen to the question and speak out your answer!,1555.9422159194946,None,1555.911039304733,1557.9421870708466,Das Mädchen kümmert sich um seine erkältete Mutter.,kümmert,1557.2921713352202,None,1560.8256894111632,None,1572.4931293487548,1573.509705066681,1573.90970993042,None,./data/Subject_01/Session_01/Exp_data/2020_Jul_06_1802/rec_QA_run_02_block_001_trial_005.wav,,,,01,01,English,A2,True,False,True,False,False,True,True,True,True,True,True,True,No,2,No,No,No,No,2020_Jul_06_1802,nibs_stage_1,3.2.3,60.02976940163503,
2,0,2,0,,,,,1,0,1,0,6,0,6,0,,,,,,,,,,,,,,,,,,,,,,,,,,,,,,,,,,,,,,,,,,,,,,,,,Listen to the question and speak out your answer!,1576.9439039230347,None,1576.9288087844848,1578.9766590595245,"Ein Bauer hält auf seinem Tiere wie Kühe, Hühner oder Schweine.",hält,1578.3266323566436,1582.4768419265747,1582.8602462768554,None,1593.5274423122405,None,1594.944195985794,None,./data/Subject_01/Session_01/Exp_data/2020_Jul_06_1802/rec_QA_run_02_block_001_trial_006.wav,,,,01,01,English,A2,True,False,True,False,False,True,True,True,True,True,True,True,No,2,No,No,No,No,2020_Jul_06_1802,nibs_stage_1,3.2.3,60.02976940163503,
2,0,2,0,,,,,1,0,1,0,7,0,7,0,,,,,,,,,,,,,,,,,,,,,,,,,,,,,,,,,,,,,,,,,,,,,,,,,Listen to the question and speak out your answer!,1597.994355916977,None,1597.9632659912108,1599.9944460391998,"Es hat die ganze Woche geregnet, aber heute scheint endlich die Sonne. ",scheint,1599.3777774333953,1603.5279870033264,1603.9113403320312,1604.9280359745026,1614.578662252426,None,1615.9953110218048,None,./data/Subject_01/Session_01/Exp_data/2020_Jul_06_1802/rec_QA_run_02_block_001_trial_007.wav,,,,01,01,English,A2,True,False,True,False,False,True,True,True,True,True,True,True,No,2,No,No,No,No,2020_Jul_06_1802,nibs_stage_1,3.2.3,60.02976940163503,
2,0,2,0,,,,,1,0,1,0,8,0,8,0,,,,,,,,,,,,,,,,,,,,,,,,,,,,,,,,,,,,,,,,,,,,,,,,,Listen to the question and speak out your answer!,1619.0288999080658,None,1618.9977521419523,1621.0289089679718,Nach dem großen Essen war mein Hunger gestillt.,gestillt,1620.4122544288634,None,1623.4124752044677,None,1635.613036251068,None,1637.0297119617462,None,./data/Subject_01/Session_01/Exp_data/2020_Jul_06_1802/rec_QA_run_02_block_001_trial_008.wav,,,,01,01,English,A2,True,False,True,False,False,True,True,True,True,True,True,True,No,2,No,No,No,No,2020_Jul_06_1802,nibs_stage_1,3.2.3,60.02976940163503,
2,0,2,0,,,,,1,0,1,0,9,0,9,0,,,,,,,,,,,,,,,,,,,,,,,,,,,,,,,,,,,,,,,,,,,,,,,,,Listen to the question and speak out your answer!,1640.0800199508667,None,1640.0490234375,1642.080027103424,Die Erklärungen des Lehrers haben absolut Sinn ergeben.,ergeben,1641.4300204277038,1644.8468880653381,1645.263618326187,None,1656.6307264328002,None,1658.0475540161133,None,./data/Subject_01/Session_01/Exp_data/2020_Jul_06_1802/rec_QA_run_02_block_001_trial_009.wav,,,,01,01,English,A2,True,False,True,False,False,True,True,True,True,True,True,True,No,2,No,No,No,No,2020_Jul_06_1802,nibs_stage_1,3.2.3,60.02976940163503,
2,0,2,0,,,,,1,0,1,0,10,0,10,0,,,,,,,,,,,,,,,,,,,,,,,,,,,,,,,,,,,,,,,,,,,,,,,,,Listen to the question and speak out your answer!,1661.1144840717316,None,1661.0834900856016,1663.1144981384277,Manche Politiker wollen den Frieden auf Erden sichern.,sichern,1662.4978164196013,None,1666.1313022136687,1667.148057937622,1677.6986442565917,1678.7153720855713,1679.115364074707,None,./data/Subject_01/Session_01/Exp_data/2020_Jul_06_1802/rec_QA_run_02_block_001_trial_010.wav,,,,01,01,English,A2,True,False,True,False,False,True,True,True,True,True,True,True,No,2,No,No,No,No,2020_Jul_06_1802,nibs_stage_1,3.2.3,60.02976940163503,
2,0,2,0,,,,,1,0,1,0,11,0,11,0,,,,,,,,,,,,,,,,,,,,,,,,,,,,,,,,,,,,,,,,,,,,,,,,,Listen to the question and speak out your answer!,1682.1159300804138,None,1682.101137971878,1684.1489441394806,"Ich bin der Überzeugung, dass er es rechtzeitig schaffen kann.",schaffen,1683.4989362716674,1687.1160390377045,1687.4658254146575,None,1698.6997474193572,None,1700.1164739131927,None,./data/Subject_01/Session_01/Exp_data/2020_Jul_06_1802/rec_QA_run_02_block_001_trial_011.wav,,,,01,01,English,A2,True,False,True,False,False,True,True,True,True,True,True,True,No,2,No,No,No,No,2020_Jul_06_1802,nibs_stage_1,3.2.3,60.02976940163503,
2,0,2,0,,,,,1,0,1,0,12,0,12,0,,,,,,,,,,,,,,,,,,,,,,,,,,,,,,,,,,,,,,,,,,,,,,,,,Listen to the question and speak out your answer!,1703.1504259109497,None,1703.1357048511504,1705.1834571361542,"Es dauerte lange, alle nötigen Informationen zu sammeln.",sammeln,1704.5334063529967,1708.1505439281464,1708.500320291519,None,1719.7342232227325,None,1721.1509709358215,None,./data/Subject_01/Session_01/Exp_data/2020_Jul_06_1802/rec_QA_run_02_block_001_trial_012.wav,,,,01,01,English,A2,True,False,True,False,False,True,True,True,True,True,True,True,No,2,No,No,No,No,2020_Jul_06_1802,nibs_stage_1,3.2.3,60.02976940163503,
2,0,2,0,,,,,1,0,1,0,13,0,13,0,,,,,,,,,,,,,,,,,,,,,,,,,,,,,,,,,,,,,,,,,,,,,,,,,Listen to the question and speak out your answer!,1724.2180700302124,None,1724.2034354686737,1726.2512140274048,Bei der Bewerbung müssen Sie Ihre Motivation begründen.,begründen,1725.6012004375457,1728.8518090248108,1729.2347312927245,None,1740.8020044326781,None,1742.2187399864197,None,./data/Subject_01/Session_01/Exp_data/2020_Jul_06_1802/rec_QA_run_02_block_001_trial_013.wav,,,,01,01,English,A2,True,False,True,False,False,True,True,True,True,True,True,True,No,2,No,No,No,No,2020_Jul_06_1802,nibs_stage_1,3.2.3,60.02976940163503,
2,0,2,0,,,,,1,0,1,0,14,0,14,0,,,,,,,,,,,,,,,,,,,,,,,,,,,,,,,,,,,,,,,,,,,,,,,,,Listen to the question and speak out your answer!,1745.269140958786,None,1745.2545721054075,1747.3024461269379,Linda trinkt lieber eine heiße Schokolade.,trinkt,1746.6523223876952,None,1749.8191593647002,1750.835855960846,1761.853139257431,1762.8699550628662,1763.2697880268097,None,./data/Subject_01/Session_01/Exp_data/2020_Jul_06_1802/rec_QA_run_02_block_001_trial_014.wav,,,,01,01,English,A2,True,False,True,False,False,True,True,True,True,True,True,True,No,2,No,No,No,No,2020_Jul_06_1802,nibs_stage_1,3.2.3,60.02976940163503,
2,0,2,0,,,,,1,0,1,0,15,0,15,0,,,,,,,,,,,,,,,,,,,,,,,,,,,,,,,,,,,,,,,,,,,,,,,,,Listen to the question and speak out your answer!,1766.3367030620575,None,1766.3223383903503,1768.3702330589294,Mein Freund schenkt mir eine Schachtel mit Schokolade.,schenkt,1767.720126247406,None,1771.1536322593688,1772.170331954956,1782.8876303195952,None,1784.3043270111084,1785.337692975998,./data/Subject_01/Session_01/Exp_data/2020_Jul_06_1802/rec_QA_run_02_block_001_trial_015.wav,,,,01,01,English,A2,True,False,True,False,False,True,True,True,True,True,True,True,No,2,No,No,No,No,2020_Jul_06_1802,nibs_stage_1,3.2.3,60.02976940163503,
2,0,2,0,,,,,1,0,1,0,16,0,16,0,,,,,,,,,,,,,,,,,,,,,,,,,,,,,,,,,,,,,,,,,,,,,,,,,Listen to the question and speak out your answer!,1787.4044871330261,None,1787.3734211444853,1789.4045860767365,"Ja, das Wasser aus der Leitung kann man trinken.",trinken,1788.7879112720489,None,1792.0881954193114,None,1803.9887994289397,None,1805.4054429531097,None,./data/Subject_01/Session_01/Exp_data/2020_Jul_06_1802/rec_QA_run_02_block_001_trial_016.wav,,,,01,01,English,A2,True,False,True,False,False,True,True,True,True,True,True,True,No,2,No,No,No,No,2020_Jul_06_1802,nibs_stage_1,3.2.3,60.02976940163503,
2,0,2,0,,,,,1,0,1,0,17,0,17,0,,,,,,,,,,,,,,,,,,,,,,,,,,,,,,,,,,,,,,,,,,,,,,,,,Listen to the question and speak out your answer!,1808.4390590190887,None,1808.4079052925108,1810.439054965973,In der Küche steht noch das schumutzige Geschirr vom Frühstück.,steht,1809.7891074180602,None,1813.755891418457,None,1824.9898553848266,None,1826.4066350460052,None,./data/Subject_01/Session_01/Exp_data/2020_Jul_06_1802/rec_QA_run_02_block_001_trial_017.wav,,,,01,01,English,A2,True,False,True,False,False,True,True,True,True,True,True,True,No,2,No,No,No,No,2020_Jul_06_1802,nibs_stage_1,3.2.3,60.02976940163503,
2,0,2,0,,,,,1,0,1,0,18,0,18,0,,,,,,,,,,,,,,,,,,,,,,,,,,,,,,,,,,,,,,,,,,,,,,,,,Listen to the question and speak out your answer!,1829.4737730026245,None,1829.4590495109558,1831.5068731307983,An der Kasse bezahlen wir mit Bankomatkarte.,bezahlen,1830.8568264007567,None,1834.2903533935546,1835.307079076767,1846.0576363563537,None,1847.4744720458984,None,./data/Subject_01/Session_01/Exp_data/2020_Jul_06_1802/rec_QA_run_02_block_001_trial_018.wav,,,,01,01,English,A2,True,False,True,False,False,True,True,True,True,True,True,True,No,2,No,No,No,No,2020_Jul_06_1802,nibs_stage_1,3.2.3,60.02976940163503,
2,0,2,0,,,,,1,0,1,0,19,0,19,0,,,,,,,,,,,,,,,,,,,,,,,,,,,,,,,,,,,,,,,,,,,,,,,,,Listen to the question and speak out your answer!,1850.5084581375122,None,1850.4934738636016,1852.5413069725037,"Es gibt viele Vorteile, wenn man die öffentlichen Verkehrsmittel benutzt.",benutzt,1851.8912833690642,1856.141751050949,1856.5250004291534,None,1867.0921903610229,None,1868.5087850093842,None,./data/Subject_01/Session_01/Exp_data/2020_Jul_06_1802/rec_QA_run_02_block_001_trial_019.wav,,,,01,01,English,A2,True,False,True,False,False,True,True,True,True,True,True,True,No,2,No,No,No,No,2020_Jul_06_1802,nibs_stage_1,3.2.3,60.02976940163503,
2,0,2,0,,,,,1,0,1,0,20,0,20,0,,,,,,,,,,,,,,,,,,,,,,,,,,,,,,,,,,,,,,,,,,,,,,,,,Listen to the question and speak out your answer!,1871.5757269859314,None,1871.5445651531218,1873.57568693161,"Meine Mutter kocht heute Mittag nicht, wir gehen aus zum Essen.",kocht,1872.9590064048766,1876.7091751098633,1877.092549419403,None,1888.1597503185271,None,1889.5764679908752,None,./data/Subject_01/Session_01/Exp_data/2020_Jul_06_1802/rec_QA_run_02_block_001_trial_020.wav,,,,01,01,English,A2,True,False,True,False,False,True,True,True,True,True,True,True,No,2,No,No,No,No,2020_Jul_06_1802,nibs_stage_1,3.2.3,60.02976940163503,
2,0,2,0,,,,,1,0,1,0,21,0,21,0,,,,,,,,,,,,,,,,,,,,,,,,,,,,,,,,,,,,,,,,,,,,,,,,,Listen to the question and speak out your answer!,1892.6100039482117,None,1892.5790581226347,1894.610034942627,"Sie brauchen kein Ticket, das Konzert ist kostenlos.",brauchen,1893.9933334350585,1897.5101480484009,1897.8935152053832,None,1909.1941913127898,None,1910.610806941986,None,./data/Subject_01/Session_01/Exp_data/2020_Jul_06_1802/rec_QA_run_02_block_001_trial_021.wav,,,,01,01,English,A2,True,False,True,False,False,True,True,True,True,True,True,True,No,2,No,No,No,No,2020_Jul_06_1802,nibs_stage_1,3.2.3,60.02976940163503,
2,0,2,0,,,,,1,0,1,0,22,0,22,0,,,,,,,,,,,,,,,,,,,,,,,,,,,,,,,,,,,,,,,,,,,,,,,,,Listen to the question and speak out your answer!,1913.6445009708405,None,1913.6299815654754,1915.6776161193848,"Wir werden später bestellen, denn es fehlen noch einige Gäste.",fehlen,1915.0276783466338,1918.8444890975952,1919.1945284366607,1920.2112679481506,1930.2284072399138,None,1931.6450970172882,None,./data/Subject_01/Session_01/Exp_data/2020_Jul_06_1802/rec_QA_run_02_block_001_trial_022.wav,,,,01,01,English,A2,True,False,True,False,False,True,True,True,True,True,True,True,No,2,No,No,No,No,2020_Jul_06_1802,nibs_stage_1,3.2.3,60.02976940163503,
2,0,2,0,,,,,1,0,1,0,23,0,23,0,,,,,,,,,,,,,,,,,,,,,,,,,,,,,,,,,,,,,,,,,,,,,,,,,Listen to the question and speak out your answer!,1934.712000131607,None,1934.6975555896759,1936.7453620433807,Dieses Brot ist maschinell hergestellt worden.,hergestellt,1936.095331287384,1938.9454491138458,1939.3288212776183,None,1951.2627123355865,None,1952.6794199943542,1953.7127559185028,./data/Subject_01/Session_01/Exp_data/2020_Jul_06_1802/rec_QA_run_02_block_001_trial_023.wav,,,,01,01,English,A2,True,False,True,False,False,True,True,True,True,True,True,True,No,2,No,No,No,No,2020_Jul_06_1802,nibs_stage_1,3.2.3,60.02976940163503,
2,0,2,0,,,,,1,0,1,0,24,0,24,0,,,,,,,,,,,,,,,,,,,,,,,,,,,,,,,,,,,,,,,,,,,,,,,,,Listen to the question and speak out your answer!,1955.7796671390533,None,1955.7484840869902,1957.7796969413757,"Die Regierung plant, mehr Arbeitsplätze für junge Menschen zu schaffen.",schaffen,1957.1629172325133,None,1961.6298733711242,None,1972.363731241226,1973.380420923233,1973.780426979065,None,./data/Subject_01/Session_01/Exp_data/2020_Jul_06_1802/rec_QA_run_02_block_001_trial_024.wav,,,,01,01,English,A2,True,False,True,False,False,True,True,True,True,True,True,True,No,2,No,No,No,No,2020_Jul_06_1802,nibs_stage_1,3.2.3,60.02976940163503,
2,0,2,0,,,,,1,0,1,0,,,,,,,,,,,,,,,,,,,,,,,,,,,,,,,,,,,,,,,,,,1977.7973999977112,None,,,,,,,,,,,,,,,,,,,,,,,,,,,,,01,01,English,A2,True,False,True,False,False,True,True,True,True,True,True,True,No,2,No,No,No,No,2020_Jul_06_1802,nibs_stage_1,3.2.3,60.02976940163503,
2,0,2,0,,,,,,,,,,,,,,,,,,,,,,,,,,,,,,,,,,,,,,,,,,,,,,,,,,,,,,,,,,,,,,,,,,,,,,,,,,,,,Please remain seated until further instruction via the earphone.,61.02712392807007,None,01,01,English,A2,True,False,True,False,False,True,True,True,True,True,True,True,No,2,No,No,No,No,2020_Jul_06_1802,nibs_stage_1,3.2.3,60.02976940163503,
