pre_trial.thisRepN,pre_trial.thisTrialN,pre_trial.thisN,pre_trial.thisIndex,run.thisRepN,run.thisTrialN,run.thisN,run.thisIndex,QA_block.thisRepN,QA_block.thisTrialN,QA_block.thisN,QA_block.thisIndex,QA_trial.thisRepN,QA_trial.thisTrialN,QA_trial.thisN,QA_trial.thisIndex,post_trial.thisRepN,post_trial.thisTrialN,post_trial.thisN,post_trial.thisIndex,instruction_text.started,instruction_text.stopped,instruction_cont.started,instruction_cont.stopped,Cali_de_pre_intro_title.started,Cali_de_pre_intro_title.stopped,Cali_de_pre_intro_text.started,Cali_de_pre_intro_text.stopped,Cali_de_pre_intro_audio.started,Cali_de_pre_intro_audio.stopped,Cali_de_pre_intro_cont.started,Cali_de_pre_intro_cont.stopped,Cali_de_pre_rec_text.started,Cali_de_pre_rec_text.stopped,Cali_de_pre_rec_beep_hint.started,Cali_de_pre_rec_beep_hint.stopped,Cali_de_pre_rec_question_text.started,Cali_de_pre_rec_question_text.stopped,Cali_de_pre_rec_beep_start.started,Cali_de_pre_rec_beep_start.stopped,Cali_de_pre_rec_beep_end.started,Cali_de_pre_rec_beep_end.stopped,Cali_de_pre_rec_break.started,Cali_de_pre_rec_break.stopped,filename,Pause_cont.started,Pause_cont.stopped,RS_intro_title.started,RS_intro_title.stopped,RS_intro_text.started,RS_intro_text.stopped,RS_intro_audio.started,RS_intro_audio.stopped,RS_rec_text.started,RS_rec_text.stopped,RS_rec_cont.started,RS_rec_cont.stopped,QA_intro_title.started,QA_intro_title.stopped,QA_intro_text.started,QA_intro_text.stopped,QA_intro_audio.started,QA_intro_audio.stopped,QA_intro_cont.started,QA_intro_cont.stopped,QA_rec_text.started,QA_rec_text.stopped,QA_rec_beep_hint.started,QA_rec_beep_hint.stopped,QA_rec_question.started,QA_rec_question.stopped,QA_rec_beep_start.started,QA_rec_beep_start.stopped,QA_rec_beep_end.started,QA_rec_beep_end.stopped,QA_rec_break.started,QA_rec_break.stopped,fade_in_text.started,fade_in_text.stopped,Cali_de_post_intro_title.started,Cali_de_post_intro_title.stopped,Cali_de_post_intro_text.started,Cali_de_post_intro_text.stopped,Cali_de_post_intro_audio.started,Cali_de_post_intro_audio.stopped,Cali_de_post_intro_cont.started,Cali_de_post_intro_cont.stopped,Cali_de_post_rec_text.started,Cali_de_post_rec_text.stopped,Cali_de_post_rec_beep_hint.started,Cali_de_post_rec_beep_hint.stopped,Cali_de_post_rec_question_text.started,Cali_de_post_rec_question_text.stopped,Cali_de_post_rec_beep_start.started,Cali_de_post_rec_beep_start.stopped,Cali_de_post_rec_beep_end.started,Cali_de_post_rec_beep_end.stopped,Cali_de_post_rec_break.started,Cali_de_post_rec_break.stopped,text_3.started,text_3.stopped,participant,session,First language,German level,date,expName,psychopyVersion,frameRate,
0,0,0,0,,,,,,,,,,,,,,,,,5.671243906021118,None,10.655218124389648,None,51.0943329334259,81.10949802398682,51.0943329334259,81.10949802398682,51.078297686576846,None,81.4766640663147,None,94.76231408119202,None,94.74339563846588,96.75833892822266,97.12496399879456,124.72606992721558,111.52591879367829,None,121.3310898065567,None,122.73097801208496,124.74274802207947,./data/Subject_01/Session_01/Exp_data/rec_cali_de_pre_trial_000.wav,,,,,,,,,,,,,,,,,,,,,,,,,,,,,,,,,,,,,,,,,,,,,,,,,,,,,,,,,01,01,,,2020_Mär_09_1026,nibs_stage_1,3.2.3,60.00022888270905,
,,,,0,0,0,0,0,0,0,0,0,0,0,0,,,,,,,,,,,,,,,,,,,,,,,,,,,,,./data/Subject_01/Session_01/Exp_data/rec_QA_run_00_block_000_trial_000.wav,136.75981092453003,None,192.58249711990356,None,192.58249711990356,None,192.58082659244536,None,217.59898209571838,227.61350393295288,229.39907908439636,None,235.8013288974762,275.80395102500916,235.8013288974762,275.80395102500916,235.78263075351714,None,276.1844251155853,None,278.1587710380554,None,278.13839371204375,280.1490840911865,280.5324757814407,284.88267612457275,285.29953773021697,None,304.7335396528244,305.7386689186096,306.1386868953705,None,,,,,,,,,,,,,,,,,,,,,,,,,01,01,,,2020_Mär_09_1026,nibs_stage_1,3.2.3,60.00022888270905,
,,,,0,0,0,0,0,0,0,0,,,,,,,,,,,,,,,,,,,,,,,,,,,,,,,,,,320.16970896720886,None,,,,,,,,,,,,,,,,,,,,,,,,,,,,,,,,,,,,,,,,,,,,,,,,,,,,,,,01,01,,,2020_Mär_09_1026,nibs_stage_1,3.2.3,60.00022888270905,
,,,,0,0,0,0,1,0,1,0,0,0,0,0,,,,,,,,,,,,,,,,,,,,,,,,,,,,,./data/Subject_01/Session_01/Exp_data/rec_QA_run_00_block_001_trial_000.wav,,,,,,,,,,,,,,,,,,,,,320.21974897384644,None,320.2030743598938,322.2176640033722,322.58434159755706,328.06972002983093,328.4565675973892,None,346.7739747285843,347.78549098968506,348.18553590774536,350.19055795669556,,,,,,,,,,,,,,,,,,,,,,,,,01,01,,,2020_Mär_09_1026,nibs_stage_1,3.2.3,60.00022888270905,
,,,,0,0,0,0,1,0,1,0,,,,,,,,,,,,,,,,,,,,,,,,,,,,,,,,,,362.22165393829346,None,,,,,,,,,,,,,,,,,,,,,,,,,,,,,,,,,,,,,,,,,,,,,,,,,,,,,,,01,01,,,2020_Mär_09_1026,nibs_stage_1,3.2.3,60.00022888270905,
,,,,0,0,0,0,,,,,,,,,,,,,,,,,,,,,,,,,,,,,,,,,,,,,,,,,,,,,,,,,,,,,,,,,,,,,,,,,,,,,,,,,,,,,,,,,,,,,,,,,,,,,,01,01,,,2020_Mär_09_1026,nibs_stage_1,3.2.3,60.00022888270905,
,,,,1,0,1,0,0,0,0,0,0,0,0,0,,,,,,,,,,,,,,,,,,,,,,,,,,,,,./data/Subject_01/Session_01/Exp_data/rec_QA_run_01_block_000_trial_000.wav,,,416.5819001197815,None,416.5819001197815,None,416.56151564121245,None,441.60892391204834,451.62374997138977,453.4093179702759,None,457.144406080246,497.147696018219,457.144406080246,497.147696018219,457.1260905981064,None,497.5281090736389,None,498.4633979797363,None,498.44491560459136,500.45941400527954,500.8426986455917,503.3978910446167,503.80971772670745,None,525.043979716301,526.0441949367523,526.4440639019012,None,365.9787929058075,375.98677492141724,,,,,,,,,,,,,,,,,,,,,,,01,01,,,2020_Mär_09_1026,nibs_stage_1,3.2.3,60.00022888270905,
,,,,1,0,1,0,0,0,0,0,,,,,,,,,,,,,,,,,,,,,,,,,,,,,,,,,,540.4611420631409,None,,,,,,,,,,,,,,,,,,,,,,,,,,,,,,,,,,,,,,,,,,,,,,,,,,,,,,,01,01,,,2020_Mär_09_1026,nibs_stage_1,3.2.3,60.00022888270905,
,,,,1,0,1,0,1,0,1,0,0,0,0,0,,,,,,,,,,,,,,,,,,,,,,,,,,,,,./data/Subject_01/Session_01/Exp_data/rec_QA_run_01_block_001_trial_000.wav,,,,,,,,,,,,,,,,,,,,,545.5322370529175,None,545.5138047456742,547.5167260169983,547.8951767206192,None,552.1120308160782,None,572.0962815999985,None,573.4974339008331,575.4965240955353,,,,,,,,,,,,,,,,,,,,,,,,,01,01,,,2020_Mär_09_1026,nibs_stage_1,3.2.3,60.00022888270905,
,,,,1,0,1,0,1,0,1,0,,,,,,,,,,,,,,,,,,,,,,,,,,,,,,,,,,587.550055027008,None,,,,,,,,,,,,,,,,,,,,,,,,,,,,,,,,,,,,,,,,,,,,,,,,,,,,,,,01,01,,,2020_Mär_09_1026,nibs_stage_1,3.2.3,60.00022888270905,
,,,,1,0,1,0,,,,,,,,,,,,,,,,,,,,,,,,,,,,,,,,,,,,,,,,,,,,,,,,,,,,,,,,,,,,,,,,,,,,,,,,,,,,,,,,,,,,,,,,,,,,,,01,01,,,2020_Mär_09_1026,nibs_stage_1,3.2.3,60.00022888270905,
,,,,2,0,2,0,0,0,0,0,0,0,0,0,,,,,,,,,,,,,,,,,,,,,,,,,,,,,./data/Subject_01/Session_01/Exp_data/rec_QA_run_02_block_000_trial_000.wav,,,650.3872270584106,None,650.3872270584106,None,650.3693238019944,None,675.4369790554047,685.4749059677124,687.240828037262,None,711.3404650688171,751.3744900226593,711.3404650688171,751.3744900226593,711.3221107244492,None,751.7574889659882,None,752.6783540248871,None,752.6447578191758,754.6786069869995,755.0579837083817,760.1082479953766,760.4916105985642,None,779.2593677759171,None,780.6761119365692,None,,,,,,,,,,,,,,,,,,,,,,,,,01,01,,,2020_Mär_09_1026,nibs_stage_1,3.2.3,60.00022888270905,
,,,,2,0,2,0,0,0,0,0,,,,,,,,,,,,,,,,,,,,,,,,,,,,,,,,,,794.6931419372559,None,,,,,,,,,,,,,,,,,,,,,,,,,,,,,,,,,,,,,,,,,,,,,,,,,,,,,,,01,01,,,2020_Mär_09_1026,nibs_stage_1,3.2.3,60.00022888270905,
,,,,2,0,2,0,1,0,1,0,0,0,0,0,,,,,,,,,,,,,,,,,,,,,,,,,,,,,./data/Subject_01/Session_01/Exp_data/rec_QA_run_02_block_001_trial_000.wav,,,,,,,,,,,,,,,,,,,,,797.2014291286469,None,797.180499625206,799.2269930839539,799.5811136484147,802.793869972229,803.177230668068,None,823.7783296823502,824.7950351238251,825.1950569152832,None,,,,,,,,,,,,,,,,,,,,,,,,,01,01,,,2020_Mär_09_1026,nibs_stage_1,3.2.3,60.00022888270905,
,,,,2,0,2,0,1,0,1,0,,,,,,,,,,,,,,,,,,,,,,,,,,,,,,,,,,839.2455270290375,None,,,,,,,,,,,,,,,,,,,,,,,,,,,,,,,,,,,,,,,,,,,,,,,,,,,,,,,01,01,,,2020_Mär_09_1026,nibs_stage_1,3.2.3,60.00022888270905,
,,,,2,0,2,0,,,,,,,,,,,,,,,,,,,,,,,,,,,,,,,,,,,,,,,,,,,,,,,,,,,,,,,,,,,,,,,,,,,,,,847.7169771194458,857.7470190525055,,,,,,,,,,,,,,,,,,,,,,,01,01,,,2020_Mär_09_1026,nibs_stage_1,3.2.3,60.00022888270905,
,,,,3,0,3,0,0,0,0,0,0,0,0,0,,,,,,,,,,,,,,,,,,,,,,,,,,,,,./data/Subject_01/Session_01/Exp_data/rec_QA_run_03_block_000_trial_000.wav,,,904.640459060669,None,904.640459060669,None,904.6197367429734,None,929.6856601238251,939.7219359874725,941.5011301040649,None,944.8130240440369,984.8538310527802,944.8130240440369,984.8538310527802,944.7886596441269,None,985.2035310268402,None,993.124979019165,None,993.091190648079,995.1211190223694,995.5045076131821,None,1000.838164639473,1001.8547880649567,1019.7059336423874,1020.7224299907684,1021.1225349903107,None,,,,,,,,,,,,,,,,,,,,,,,,,01,01,,,2020_Mär_09_1026,nibs_stage_1,3.2.3,60.00022888270905,
,,,,3,0,3,0,0,0,0,0,,,,,,,,,,,,,,,,,,,,,,,,,,,,,,,,,,1035.1396169662476,None,,,,,,,,,,,,,,,,,,,,,,,,,,,,,,,,,,,,,,,,,,,,,,,,,,,,,,,01,01,,,2020_Mär_09_1026,nibs_stage_1,3.2.3,60.00022888270905,
,,,,3,0,3,0,1,0,1,0,0,0,0,0,,,,,,,,,,,,,,,,,,,,,,,,,,,,,./data/Subject_01/Session_01/Exp_data/rec_QA_run_03_block_001_trial_000.wav,,,,,,,,,,,,,,,,,,,,,1037.7462570667267,None,1037.7269767045975,1039.7441399097443,1040.1235306978226,None,1045.7238457918168,1046.7405478954315,1064.3249336004258,1065.3415880203247,1065.7416429519653,None,,,,,,,,,,,,,,,,,,,,,,,,,01,01,,,2020_Mär_09_1026,nibs_stage_1,3.2.3,60.00022888270905,
,,,,3,0,3,0,1,0,1,0,,,,,,,,,,,,,,,,,,,,,,,,,,,,,,,,,,1079.7921090126038,None,,,,,,,,,,,,,,,,,,,,,,,,,,,,,,,,,,,,,,,,,,,,,,,,,,,,,,,01,01,,,2020_Mär_09_1026,nibs_stage_1,3.2.3,60.00022888270905,
,,,,3,0,3,0,,,,,,,,,,,,,,,,,,,,,,,,,,,,,,,,,,,,,,,,,,,,,,,,,,,,,,,,,,,,,,,,,,,,,,,,,,,,,,,,,,,,,,,,,,,,,,01,01,,,2020_Mär_09_1026,nibs_stage_1,3.2.3,60.00022888270905,
,,,,,,,,,,,,,,,,0,0,0,0,,,,,,,,,,,,,,,,,,,,,,,,,./data/Subject_01/Session_01/Exp_data/rec_cali_de_post_trial_000.wav,,,,,,,,,,,,,,,,,,,,,,,,,,,,,,,,,,,1083.8667540550232,1113.894338130951,1083.8667540550232,1113.894338130951,1083.8295536756516,None,1114.2812390327454,None,1118.4985139369965,None,1118.4649286985398,1120.494688987732,1120.8989930152893,None,1135.2788687467576,None,1145.0794397115708,None,1146.4962139129639,None,,,01,01,,,2020_Mär_09_1026,nibs_stage_1,3.2.3,60.00022888270905,
,,,,,,,,,,,,,,,,,,,,,,,,,,,,,,,,,,,,,,,,,,,,,1160.513428926468,None,,,,,,,,,,,,,,,,,,,,,,,,,,,,,,,,,,,,,,,,,,,,,,,,,,,,,1164.9215331077576,None,,,,,,,,,
