run.thisRepN,run.thisTrialN,run.thisN,run.thisIndex,artifact_trial.thisRepN,artifact_trial.thisTrialN,artifact_trial.thisN,artifact_trial.thisIndex,QA_block.thisRepN,QA_block.thisTrialN,QA_block.thisN,QA_block.thisIndex,QA_trial.thisRepN,QA_trial.thisTrialN,QA_trial.thisN,QA_trial.thisIndex,fade_in_text.text,fade_in_text.started,fade_in_text.stopped,Artifact_intro_title.started,Artifact_intro_title.stopped,Artifact_intro_text.text,Artifact_intro_text.started,Artifact_intro_text.stopped,Artifact_intro_audio.started,Artifact_intro_audio.stopped,Artifact_intro_cont.started,Artifact_intro_cont.stopped,Artifact_rec_text.text,Artifact_rec_text.started,Artifact_rec_text.stopped,Artifact_rec_beep_hint.started,Artifact_rec_beep_hint.stopped,Artifact_rec_action.started,Artifact_rec_action.stopped,Artifact_rec_beep_start.started,Artifact_rec_beep_start.stopped,Artifact_rec_recording.started,Artifact_rec_recording.stopped,Artifact_rec_beep_end.started,Artifact_rec_beep_end.stopped,Artifact_rec_break.started,Artifact_rec_break.stopped,RS_intro_title.started,RS_intro_title.stopped,RS_intro_text.text,RS_intro_text.started,RS_intro_text.stopped,RS_intro_audio.started,RS_intro_audio.stopped,RS_rec_text.text,RS_rec_text.started,RS_rec_text.stopped,Pause_cont.started,Pause_cont.stopped,QA_intro_title.started,QA_intro_title.stopped,QA_intro_text.text,QA_intro_text.started,QA_intro_text.stopped,QA_intro_audio.started,QA_intro_audio.stopped,QA_intro_cont.started,QA_intro_cont.stopped,QA_rec_text.text,QA_rec_text.started,QA_rec_text.stopped,QA_rec_beep_hint.started,QA_rec_beep_hint.stopped,QA_rec_question.sen_text,QA_rec_question.cen_text,QA_rec_question.started,QA_rec_question.stopped,QA_rec_beep_start.started,QA_rec_beep_start.stopped,QA_rec_beep_end.started,QA_rec_beep_end.stopped,QA_rec_break.started,QA_rec_break.stopped,filename,participant,session,First language,German level,Full_screen,Instruction,Intro,Artifact,Cali_pre,Fade_in_out,Artifact_within,Resting_State,QA,Pause,Cali_post,End,Breakpoint_Cali_pre_trial,Breakpoint_Run,Breakpoint_RS_block,Breakpoint_QA_block,Breakpoint_QA_trial,Breakpoint_Cali_post_trial,date,expName,psychopyVersion,frameRate,
2,0,2,0,0,0,0,0,,,,,,,,,Please remain seated until further instruction via the earphone.,57.13928699493408,None,59.172709941864014,None,"  - Task: Artifacts collection   
  - Please follow audio instruction              
",59.172709941864014,None,59.15613925457001,None,85.557541847229,None,,87.82464385032654,None,87.80757319927216,89.80788087844849,89.19115912914276,None,92.59133803844452,None,93.99135601520538,103.99195599555969,104.391970038414,None,105.79195380210876,106.79208087921143,,,,,,,,,,,,,,,,,,,,,,,,,,,,,,,,,,,,,,05,03,Norwegian,B1,True,False,True,False,False,True,True,True,True,True,True,True,No,2,No,No,No,No,2020_Aug_19_1134,nibs_stage_1,3.2.3,59.99447873382777,
2,0,2,0,1,0,1,0,,,,,,,,,,,,,,,,,,,,,,109.84297180175781,None,109.82588112354279,111.82569193840027,111.20899021625519,None,114.6093600988388,None,116.00924909114838,126.00973796844482,126.40978300571442,127.40981578826904,127.80987596511841,128.81018900871277,,,,,,,,,,,,,,,,,,,,,,,,,,,,,,,,,,,,,,05,03,Norwegian,B1,True,False,True,False,False,True,True,True,True,True,True,True,No,2,No,No,No,No,2020_Aug_19_1134,nibs_stage_1,3.2.3,59.99447873382777,
2,0,2,0,2,0,2,0,,,,,,,,,,,,,,,,,,,,,,131.86000800132751,None,131.84347307682037,133.84354496002197,133.22706019878387,None,136.6269680261612,None,138.02706515789032,148.02757596969604,148.42770111560822,149.42764282226562,149.82767796516418,150.82773399353027,,,,,,,,,,,,,,,,,,,,,,,,,,,,,,,,,,,,,,05,03,Norwegian,B1,True,False,True,False,False,True,True,True,True,True,True,True,No,2,No,No,No,No,2020_Aug_19_1134,nibs_stage_1,3.2.3,59.99447873382777,
2,0,2,0,3,0,3,0,,,,,,,,,,,,,,,,,,,,,,153.87850785255432,None,153.86150014400482,155.86132097244263,155.24460017681122,None,158.64501702785492,None,160.04485309123993,170.04541087150574,170.44544804096222,171.44563484191895,171.845440864563,172.8455638885498,,,,,,,,,,,,,,,,,,,,,,,,,,,,,,,,,,,,,,05,03,Norwegian,B1,True,False,True,False,False,True,True,True,True,True,True,True,No,2,No,No,No,No,2020_Aug_19_1134,nibs_stage_1,3.2.3,59.99447873382777,
2,0,2,0,4,0,4,0,,,,,,,,,,,,,,,,,,,,,,175.8964478969574,None,175.87912714481354,177.87914085388184,177.26241719722748,None,180.66270005702972,None,182.06264913082123,192.06320190429688,192.4632431268692,193.46326088905334,193.86328291893005,194.8633849620819,,,,,,,,,,,,,,,,,,,,,,,,,,,,,,,,,,,,,,05,03,Norwegian,B1,True,False,True,False,False,True,True,True,True,True,True,True,No,2,No,No,No,No,2020_Aug_19_1134,nibs_stage_1,3.2.3,59.99447873382777,
2,0,2,0,5,0,5,0,,,,,,,,,,,,,,,,,,,,,,197.91410183906555,None,197.89682018756866,199.89688301086426,199.28025114536285,None,202.68044912815094,203.6803798675537,204.08127415180206,214.08100390434265,214.48102819919586,215.48099994659424,215.8810110092163,216.88115191459656,,,,,,,,,,,,,,,,,,,,,,,,,,,,,,,,,,,,,,05,03,Norwegian,B1,True,False,True,False,False,True,True,True,True,True,True,True,No,2,No,No,No,No,2020_Aug_19_1134,nibs_stage_1,3.2.3,59.99447873382777,
2,0,2,0,6,0,6,0,,,,,,,,,,,,,,,,,,,,,,219.93131279945374,None,219.9149512052536,221.91496896743774,221.29807698726654,None,224.69821202754974,225.69832396507263,226.09833300113678,236.09875798225403,236.49876701831818,237.49913001060486,237.89898085594177,238.89902687072754,,,,,,,,,,,,,,,,,,,,,,,,,,,,,,,,,,,,,,05,03,Norwegian,B1,True,False,True,False,False,True,True,True,True,True,True,True,No,2,No,No,No,No,2020_Aug_19_1134,nibs_stage_1,3.2.3,59.99447873382777,
2,0,2,0,7,0,7,0,,,,,,,,,,,,,,,,,,,,,,241.94889283180237,None,241.93256223201752,243.93234300613403,243.31555306911469,246.31580781936646,246.71574819087982,None,248.115904211998,258.1164309978485,258.5164521932602,None,259.91642785072327,260.91655683517456,,,,,,,,,,,,,,,,,,,,,,,,,,,,,,,,,,,,,,05,03,Norwegian,B1,True,False,True,False,False,True,True,True,True,True,True,True,No,2,No,No,No,No,2020_Aug_19_1134,nibs_stage_1,3.2.3,59.99447873382777,
2,0,2,0,8,0,8,0,,,,,,,,,,,,,,,,,,,,,,263.9668469429016,None,263.9501610994339,265.95022678375244,265.3334811925888,268.3335528373718,268.7336322069168,None,270.13372218608856,280.1342167854309,280.53418815135956,None,281.93434882164,282.9344928264618,,,,,,,,,,,,,,,,,,,,,,,,,,,,,,,,,,,,,,05,03,Norwegian,B1,True,False,True,False,False,True,True,True,True,True,True,True,No,2,No,No,No,No,2020_Aug_19_1134,nibs_stage_1,3.2.3,59.99447873382777,
2,0,2,0,9,0,9,0,,,,,,,,,,,,,,,,,,,,,,285.9850687980652,None,285.96798717975616,287.967985868454,287.3512130975723,290.3513648509979,290.751452088356,291.7515208721161,292.1516281366348,302.15197491645813,302.5519860982895,303.55232787132263,303.95219683647156,304.9523138999939,,,,,,,,,,,,,,,,,,,,,,,,,,,,,,,,,,,,,,05,03,Norwegian,B1,True,False,True,False,False,True,True,True,True,True,True,True,No,2,No,No,No,No,2020_Aug_19_1134,nibs_stage_1,3.2.3,59.99447873382777,
2,0,2,0,10,0,10,0,,,,,,,,,,,,,,,,,,,,,,308.00236892700195,None,307.9857841730118,309.9858748912811,309.36903417110443,None,312.7692950963974,313.7693269252777,314.16935908794403,324.16988492012024,324.5699130296707,None,325.96996998786926,326.97003388404846,,,,,,,,,,,,,,,,,,,,,,,,,,,,,,,,,,,,,,05,03,Norwegian,B1,True,False,True,False,False,True,True,True,True,True,True,True,No,2,No,No,No,No,2020_Aug_19_1134,nibs_stage_1,3.2.3,59.99447873382777,
2,0,2,0,11,0,11,0,,,,,,,,,,,,,,,,,,,,,,330.0209059715271,None,330.0035871267319,332.0038058757782,331.38692605495453,None,334.78701508045197,None,336.18716514110565,346.18767786026,346.58770406246185,None,347.98778080940247,348.98778080940247,,,,,,,,,,,,,,,,,,,,,,,,,,,,,,,,,,,,,,05,03,Norwegian,B1,True,False,True,False,False,True,True,True,True,True,True,True,No,2,No,No,No,No,2020_Aug_19_1134,nibs_stage_1,3.2.3,59.99447873382777,
2,0,2,0,12,0,12,0,,,,,,,,,,,,,,,,,,,,,,352.03804183006287,None,352.0213931798935,354.02144980430603,353.4048331975937,356.40501379966736,356.8049041032791,357.80498480796814,358.20496213436127,368.2056939601898,368.60559117794037,None,370.00559401512146,371.0056459903717,,,,,,,,,,,,,,,,,,,,,,,,,,,,,,,,,,,,,,05,03,Norwegian,B1,True,False,True,False,False,True,True,True,True,True,True,True,No,2,No,No,No,No,2020_Aug_19_1134,nibs_stage_1,3.2.3,59.99447873382777,
2,0,2,0,13,0,13,0,,,,,,,,,,,,,,,,,,,,,,374.05601692199707,None,374.03951704502106,376.03956484794617,375.4227491617203,None,378.82288110256195,379.8230059146881,380.2230130434036,390.223552942276,390.6235350370407,None,392.0236020088196,393.0236728191376,,,,,,,,,,,,,,,,,,,,,,,,,,,,,,,,,,,,,,05,03,Norwegian,B1,True,False,True,False,False,True,True,True,True,True,True,True,No,2,No,No,No,No,2020_Aug_19_1134,nibs_stage_1,3.2.3,59.99447873382777,
2,0,2,0,14,0,14,0,,,,,,,,,,,,,,,,,,,,,,396.07412695884705,None,396.05723917484283,398.05727791786194,397.44127213954926,None,400.8409072160721,401.8409068584442,402.24081218242645,412.24137687683105,412.6412731409073,None,414.0415029525757,415.0417568683624,,,,,,,,,,,,,,,,,,,,,,,,,,,,,,,,,,,,,,05,03,Norwegian,B1,True,False,True,False,False,True,True,True,True,True,True,True,No,2,No,No,No,No,2020_Aug_19_1134,nibs_stage_1,3.2.3,59.99447873382777,
2,0,2,0,,,,,0,0,0,0,0,0,0,0,,,,,,,,,,,,,,,,,,,,,,,,,,,,625.4857528209686,None," - Task: Keep seated and relaxed with either      
             opening or closing eyes                  
 - Beep sound with decreasing pitch: Block finish 
",625.4857528209686,None,625.4691722393036,None,"Please keep relaxed and close your eyes.
",648.5202288627625,828.5301198959351,831.8969988822937,None,848.1144797801971,888.1328949928284," - Task: Listen to the question& Speak out answer 
 - Melodious beep sound: Trial start              
 - Silent sound (blank): censored word            
 - Beep sound with increasing pitch: Rec. start   
 - Beep sound with decreasing pitch: Rec. finish  
",848.1144797801971,888.1328949928284,848.0976122617722,None,887.4996049404144,None,Listen to the question and speak out your answer!,893.63343501091,None,893.6167114973068,895.6166868209839,Morgen werde ich eine Schularbeit schreiben.,schreiben,895.0001610517502,897.4667799472809,897.8668202161789,None,910.2007831335068,None,911.6008899211884,912.6010019779205,./data/Subject_05/Session_03/Exp_data/2020_Aug_19_1134/rec_QA_run_02_block_000_trial_000.wav,05,03,Norwegian,B1,True,False,True,False,False,True,True,True,True,True,True,True,No,2,No,No,No,No,2020_Aug_19_1134,nibs_stage_1,3.2.3,59.99447873382777,
2,0,2,0,,,,,0,0,0,0,1,0,1,0,,,,,,,,,,,,,,,,,,,,,,,,,,,,,,,,,,,,,,,,,,,,,,,,,Listen to the question and speak out your answer!,914.6680688858032,None,914.6512644290924,916.6511538028717,Er antwortete schnell auf meine Frage.,antwortete,916.0511041879654,None,918.9012750387192,None,931.2519270181656,932.2519838809967,932.6521878242493,933.652055978775,./data/Subject_05/Session_03/Exp_data/2020_Aug_19_1134/rec_QA_run_02_block_000_trial_001.wav,05,03,Norwegian,B1,True,False,True,False,False,True,True,True,True,True,True,True,No,2,No,No,No,No,2020_Aug_19_1134,nibs_stage_1,3.2.3,59.99447873382777,
2,0,2,0,,,,,0,0,0,0,2,0,2,0,,,,,,,,,,,,,,,,,,,,,,,,,,,,,,,,,,,,,,,,,,,,,,,,,Listen to the question and speak out your answer!,935.7024908065796,None,935.6855764389038,937.6855998039246,Bitte bilden Sie einfache Sätze.,bilden,937.0688101053238,None,939.5856791734695,None,952.2697750329971,None,953.6698288917542,954.6698579788208,./data/Subject_05/Session_03/Exp_data/2020_Aug_19_1134/rec_QA_run_02_block_000_trial_002.wav,05,03,Norwegian,B1,True,False,True,False,False,True,True,True,True,True,True,True,No,2,No,No,No,No,2020_Aug_19_1134,nibs_stage_1,3.2.3,59.99447873382777,
2,0,2,0,,,,,0,0,0,0,3,0,3,0,,,,,,,,,,,,,,,,,,,,,,,,,,,,,,,,,,,,,,,,,,,,,,,,,Listen to the question and speak out your answer!,956.7210729122162,None,956.7201192378998,958.7200589179993,Ich habe das Bild an die Wand gehängt. ,gehängt,958.1033390760422,None,960.6368001699448,None,973.3043531179428,974.3044919967651,974.7044258117676,975.7044777870178,./data/Subject_05/Session_03/Exp_data/2020_Aug_19_1134/rec_QA_run_02_block_000_trial_003.wav,05,03,Norwegian,B1,True,False,True,False,False,True,True,True,True,True,True,True,No,2,No,No,No,No,2020_Aug_19_1134,nibs_stage_1,3.2.3,59.99447873382777,
2,0,2,0,,,,,0,0,0,0,4,0,4,0,,,,,,,,,,,,,,,,,,,,,,,,,,,,,,,,,,,,,,,,,,,,,,,,,Listen to the question and speak out your answer!,977.7551848888397,None,977.7379982471466,979.7382028102875,Die friedlichen Pandas kommen aus China.,kommen,979.1380130052567,981.6381318569183,982.0548402070999,None,994.3387950658798,None,995.7389008998871,996.7388467788696,./data/Subject_05/Session_03/Exp_data/2020_Aug_19_1134/rec_QA_run_02_block_000_trial_004.wav,05,03,Norwegian,B1,True,False,True,False,False,True,True,True,True,True,True,True,No,2,No,No,No,No,2020_Aug_19_1134,nibs_stage_1,3.2.3,59.99447873382777,
2,0,2,0,,,,,0,0,0,0,5,0,5,0,,,,,,,,,,,,,,,,,,,,,,,,,,,,,,,,,,,,,,,,,,,,,,,,,Listen to the question and speak out your answer!,998.8064329624176,None,998.7890354394913,1000.7891738414764,Menschen und Firmen können ein Konto bei der Bank eröffnen.,eröffnen,1000.15578520298,1003.4893879890442,1003.9059880971909,None,1015.3568011522293,None,1016.7566528320312,1017.7567238807678,./data/Subject_05/Session_03/Exp_data/2020_Aug_19_1134/rec_QA_run_02_block_000_trial_005.wav,05,03,Norwegian,B1,True,False,True,False,False,True,True,True,True,True,True,True,No,2,No,No,No,No,2020_Aug_19_1134,nibs_stage_1,3.2.3,59.99447873382777,
2,0,2,0,,,,,0,0,0,0,6,0,6,0,,,,,,,,,,,,,,,,,,,,,,,,,,,,,,,,,,,,,,,,,,,,,,,,,Listen to the question and speak out your answer!,1019.8241729736328,None,1019.8071393966675,1021.8068509101868,Ich habe meinen Sohn für den Kurs angemeldet.,angemeldet,1021.1902431249619,1023.8570568561554,1024.2737311124802,None,1036.3910351991653,None,1037.7911188602448,1038.7911648750305,./data/Subject_05/Session_03/Exp_data/2020_Aug_19_1134/rec_QA_run_02_block_000_trial_006.wav,05,03,Norwegian,B1,True,False,True,False,False,True,True,True,True,True,True,True,No,2,No,No,No,No,2020_Aug_19_1134,nibs_stage_1,3.2.3,59.99447873382777,
2,0,2,0,,,,,0,0,0,0,7,0,7,0,,,,,,,,,,,,,,,,,,,,,,,,,,,,,,,,,,,,,,,,,,,,,,,,,Listen to the question and speak out your answer!,1040.8746538162231,None,1040.8580445051193,1042.8581819534302,Wir freuen uns von Herzen über seine ausgezeichnete Leistung.,freuen,1042.2414010763168,None,1046.5415641069412,None,1057.442046046257,None,1058.8422129154205,1059.8422977924347,./data/Subject_05/Session_03/Exp_data/2020_Aug_19_1134/rec_QA_run_02_block_000_trial_007.wav,05,03,Norwegian,B1,True,False,True,False,False,True,True,True,True,True,True,True,No,2,No,No,No,No,2020_Aug_19_1134,nibs_stage_1,3.2.3,59.99447873382777,
2,0,2,0,,,,,0,0,0,0,8,0,8,0,,,,,,,,,,,,,,,,,,,,,,,,,,,,,,,,,,,,,,,,,,,,,,,,,Listen to the question and speak out your answer!,1061.943687915802,None,1061.9259845018387,1063.9258208274841,Ich arbeite normalerweise von Montag bis Freitag.,arbeite,1063.3090401887894,None,1067.0593501329422,None,1078.5101350545883,None,1079.9267029762268,None,./data/Subject_05/Session_03/Exp_data/2020_Aug_19_1134/rec_QA_run_02_block_000_trial_008.wav,05,03,Norwegian,B1,True,False,True,False,False,True,True,True,True,True,True,True,No,2,No,No,No,No,2020_Aug_19_1134,nibs_stage_1,3.2.3,59.99447873382777,
2,0,2,0,,,,,0,0,0,0,9,0,9,0,,,,,,,,,,,,,,,,,,,,,,,,,,,,,,,,,,,,,,,,,,,,,,,,,Listen to the question and speak out your answer!,1082.9768538475037,None,1082.9435982704163,1084.9436028003693,"Das ist zu spät, ich möchte nach Hause gehen.",gehen,1084.3436230421066,1087.1104278564453,1087.5269881486893,None,1099.5444020032883,None,1100.9446558952332,1101.9445178508759,./data/Subject_05/Session_03/Exp_data/2020_Aug_19_1134/rec_QA_run_02_block_000_trial_009.wav,05,03,Norwegian,B1,True,False,True,False,False,True,True,True,True,True,True,True,No,2,No,No,No,No,2020_Aug_19_1134,nibs_stage_1,3.2.3,59.99447873382777,
2,0,2,0,,,,,0,0,0,0,10,0,10,0,,,,,,,,,,,,,,,,,,,,,,,,,,,,,,,,,,,,,,,,,,,,,,,,,Listen to the question and speak out your answer!,1103.9945769309998,None,1103.9780383110046,1105.9780728816986,"Pinguine bewohnen die Antarktis, wie auch Robben und große Seelöwen.",bewohnen,1105.3615661859512,None,1110.361517071724,None,1120.5621851682663,None,1121.9622938632965,1122.9623680114746,./data/Subject_05/Session_03/Exp_data/2020_Aug_19_1134/rec_QA_run_02_block_000_trial_010.wav,05,03,Norwegian,B1,True,False,True,False,False,True,True,True,True,True,True,True,No,2,No,No,No,No,2020_Aug_19_1134,nibs_stage_1,3.2.3,59.99447873382777,
2,0,2,0,,,,,0,0,0,0,11,0,11,0,,,,,,,,,,,,,,,,,,,,,,,,,,,,,,,,,,,,,,,,,,,,,,,,,Listen to the question and speak out your answer!,1125.0293250083923,None,1125.0124974250793,1127.0124847888947,"Denk nicht so viel darüber nach, das wird nichts bringen.",bringen,1126.396012187004,1129.479297876358,1129.8793581724167,None,1141.5965560674667,None,1143.013113975525,None,./data/Subject_05/Session_03/Exp_data/2020_Aug_19_1134/rec_QA_run_02_block_000_trial_011.wav,05,03,Norwegian,B1,True,False,True,False,False,True,True,True,True,True,True,True,No,2,No,No,No,No,2020_Aug_19_1134,nibs_stage_1,3.2.3,59.99447873382777,
2,0,2,0,,,,,0,0,0,0,12,0,12,0,,,,,,,,,,,,,,,,,,,,,,,,,,,,,,,,,,,,,,,,,,,,,,,,,Listen to the question and speak out your answer!,1146.080496788025,None,1146.0466134548187,1148.080076932907,Im ganzen Umkreis war kein Haus zu finden.,finden,1147.4633601903915,1150.2468688488007,1150.630186200142,1151.6468279361725,1162.6641510725021,None,1164.0808908939362,None,./data/Subject_05/Session_03/Exp_data/2020_Aug_19_1134/rec_QA_run_02_block_000_trial_012.wav,05,03,Norwegian,B1,True,False,True,False,False,True,True,True,True,True,True,True,No,2,No,No,No,No,2020_Aug_19_1134,nibs_stage_1,3.2.3,59.99447873382777,
2,0,2,0,,,,,0,0,0,0,13,0,13,0,,,,,,,,,,,,,,,,,,,,,,,,,,,,,,,,,,,,,,,,,,,,,,,,,Listen to the question and speak out your answer!,1167.0977718830109,None,1167.0811574459076,1169.09783577919,Er pflegte jeden Abend auf Pferden zu reiten und durch die Wälder zu gehen.,reiten,1168.481134057045,1172.8980259895325,1173.2814930677414,None,1183.6819130182266,None,1185.0986778736115,None,./data/Subject_05/Session_03/Exp_data/2020_Aug_19_1134/rec_QA_run_02_block_000_trial_013.wav,05,03,Norwegian,B1,True,False,True,False,False,True,True,True,True,True,True,True,No,2,No,No,No,No,2020_Aug_19_1134,nibs_stage_1,3.2.3,59.99447873382777,
2,0,2,0,,,,,0,0,0,0,14,0,14,0,,,,,,,,,,,,,,,,,,,,,,,,,,,,,,,,,,,,,,,,,,,,,,,,,Listen to the question and speak out your answer!,1188.1494989395142,None,1188.1321623325348,1190.1489338874817,Der Dieb wurde für sein Verbrechen bestraft.,bestraft,1189.532340168953,1192.1158068180084,1192.4659382104874,None,1204.73311316967,1205.7497828006744,1206.1499078273773,None,./data/Subject_05/Session_03/Exp_data/2020_Aug_19_1134/rec_QA_run_02_block_000_trial_014.wav,05,03,Norwegian,B1,True,False,True,False,False,True,True,True,True,True,True,True,No,2,No,No,No,No,2020_Aug_19_1134,nibs_stage_1,3.2.3,59.99447873382777,
2,0,2,0,,,,,0,0,0,0,15,0,15,0,,,,,,,,,,,,,,,,,,,,,,,,,,,,,,,,,,,,,,,,,,,,,,,,,Listen to the question and speak out your answer!,1209.183227777481,None,1209.1667701005936,1211.1834509372711,Er hat die Verbindung zwischen zwei Zufälligkeiten hergestellt.,hergestellt,1210.566675066948,1214.250293970108,1214.6336561441422,None,1225.7675770521164,None,1227.1842968463898,None,./data/Subject_05/Session_03/Exp_data/2020_Aug_19_1134/rec_QA_run_02_block_000_trial_015.wav,05,03,Norwegian,B1,True,False,True,False,False,True,True,True,True,True,True,True,No,2,No,No,No,No,2020_Aug_19_1134,nibs_stage_1,3.2.3,59.99447873382777,
2,0,2,0,,,,,0,0,0,0,16,0,16,0,,,,,,,,,,,,,,,,,,,,,,,,,,,,,,,,,,,,,,,,,,,,,,,,,Listen to the question and speak out your answer!,1230.2512209415436,None,1230.234544634819,1232.251230955124,Du solltest deiner Geliebten Blumen zum Geburtstag schenken.,schenken,1231.634635090828,1235.1180818080902,1235.468208193779,1236.4847979545593,1246.8021010160446,1247.8186609745026,1248.218693971634,None,./data/Subject_05/Session_03/Exp_data/2020_Aug_19_1134/rec_QA_run_02_block_000_trial_016.wav,05,03,Norwegian,B1,True,False,True,False,False,True,True,True,True,True,True,True,No,2,No,No,No,No,2020_Aug_19_1134,nibs_stage_1,3.2.3,59.99447873382777,
2,0,2,0,,,,,0,0,0,0,17,0,17,0,,,,,,,,,,,,,,,,,,,,,,,,,,,,,,,,,,,,,,,,,,,,,,,,,Listen to the question and speak out your answer!,1251.2857029438019,None,1251.2689436674118,1253.2856888771057,Alexander Bell hat das Telefon erfunden.,erfunden,1252.6354731321335,None,1255.769070982933,1256.7857728004456,1267.836392045021,None,1269.253126859665,None,./data/Subject_05/Session_03/Exp_data/2020_Aug_19_1134/rec_QA_run_02_block_000_trial_017.wav,05,03,Norwegian,B1,True,False,True,False,False,True,True,True,True,True,True,True,No,2,No,No,No,No,2020_Aug_19_1134,nibs_stage_1,3.2.3,59.99447873382777,
2,0,2,0,,,,,0,0,0,0,18,0,18,0,,,,,,,,,,,,,,,,,,,,,,,,,,,,,,,,,,,,,,,,,,,,,,,,,Listen to the question and speak out your answer!,1272.3200459480286,None,1272.2867002487183,1274.3204319477081,Die Sonne scheint durch die grauen Wolken.,scheint,1273.7033690214157,None,1276.4701651334763,None,1288.9041620492935,None,1290.3208758831024,None,./data/Subject_05/Session_03/Exp_data/2020_Aug_19_1134/rec_QA_run_02_block_000_trial_018.wav,05,03,Norwegian,B1,True,False,True,False,False,True,True,True,True,True,True,True,No,2,No,No,No,No,2020_Aug_19_1134,nibs_stage_1,3.2.3,59.99447873382777,
2,0,2,0,,,,,0,0,0,0,19,0,19,0,,,,,,,,,,,,,,,,,,,,,,,,,,,,,,,,,,,,,,,,,,,,,,,,,Listen to the question and speak out your answer!,1293.3380179405212,None,1293.3212082386017,1295.3378229141235,"Ich habe das Formular ausgefüllt, um mich für den Kurs anzumelden.",ausgefüllt,1294.721114039421,None,1299.2214640378952,None,1309.9219130277634,None,1311.3385589122772,None,./data/Subject_05/Session_03/Exp_data/2020_Aug_19_1134/rec_QA_run_02_block_000_trial_019.wav,05,03,Norwegian,B1,True,False,True,False,False,True,True,True,True,True,True,True,No,2,No,No,No,No,2020_Aug_19_1134,nibs_stage_1,3.2.3,59.99447873382777,
2,0,2,0,,,,,0,0,0,0,20,0,20,0,,,,,,,,,,,,,,,,,,,,,,,,,,,,,,,,,,,,,,,,,,,,,,,,,Listen to the question and speak out your answer!,1314.40602684021,None,1314.3722023963928,1316.40558385849,Der Präsident diskutierte das Thema auf der Pressekonferenz nicht.,diskutierte,1315.7888840436935,None,1320.4224520921707,1321.4391429424286,1330.9896801710129,None,1332.4064178466797,None,./data/Subject_05/Session_03/Exp_data/2020_Aug_19_1134/rec_QA_run_02_block_000_trial_020.wav,05,03,Norwegian,B1,True,False,True,False,False,True,True,True,True,True,True,True,No,2,No,No,No,No,2020_Aug_19_1134,nibs_stage_1,3.2.3,59.99447873382777,
2,0,2,0,,,,,0,0,0,0,21,0,21,0,,,,,,,,,,,,,,,,,,,,,,,,,,,,,,,,,,,,,,,,,,,,,,,,,Listen to the question and speak out your answer!,1335.424192905426,None,1335.406807422638,1337.4233679771423,"Ein rotes Signal bedeutet, dass ich warten muss.",bedeutet,1336.8066610097885,None,1340.2401970624924,1341.2569007873535,1352.0074850320816,1353.0241827964783,1353.4241988658905,None,./data/Subject_05/Session_03/Exp_data/2020_Aug_19_1134/rec_QA_run_02_block_000_trial_021.wav,05,03,Norwegian,B1,True,False,True,False,False,True,True,True,True,True,True,True,No,2,No,No,No,No,2020_Aug_19_1134,nibs_stage_1,3.2.3,59.99447873382777,
2,0,2,0,,,,,0,0,0,0,22,0,22,0,,,,,,,,,,,,,,,,,,,,,,,,,,,,,,,,,,,,,,,,,,,,,,,,,Listen to the question and speak out your answer!,1356.4753148555756,None,1356.4577844142914,1358.4744668006897,Nikolaus Kopernikus beschreibt das heliozentrische Weltbild.,beschreibt,1357.8579000234604,None,1362.2580050230026,1363.2747378349304,1373.0585771799088,None,1374.4754168987274,None,./data/Subject_05/Session_03/Exp_data/2020_Aug_19_1134/rec_QA_run_02_block_000_trial_022.wav,05,03,Norwegian,B1,True,False,True,False,False,True,True,True,True,True,True,True,No,2,No,No,No,No,2020_Aug_19_1134,nibs_stage_1,3.2.3,59.99447873382777,
2,0,2,0,,,,,0,0,0,0,23,0,23,0,,,,,,,,,,,,,,,,,,,,,,,,,,,,,,,,,,,,,,,,,,,,,,,,,Listen to the question and speak out your answer!,1377.5436539649963,None,1377.5255745649338,1379.5423629283905,Mit meinem Wagen kann ich nach Tibet reisen.,reisen,1378.9255241155624,None,1381.9259849786758,None,1394.1263500452042,None,1395.543096780777,None,./data/Subject_05/Session_03/Exp_data/2020_Aug_19_1134/rec_QA_run_02_block_000_trial_023.wav,05,03,Norwegian,B1,True,False,True,False,False,True,True,True,True,True,True,True,No,2,No,No,No,No,2020_Aug_19_1134,nibs_stage_1,3.2.3,59.99447873382777,
2,0,2,0,,,,,0,0,0,0,24,0,24,0,,,,,,,,,,,,,,,,,,,,,,,,,,,,,,,,,,,,,,,,,,,,,,,,,Listen to the question and speak out your answer!,1398.576591014862,None,1398.5433583259583,1400.5770289897919,Wie hoch kosten der Wahren ？,kosten,1399.927034020424,1401.7436578273773,1402.160029053688,None,1415.1275020837784,None,1416.544243812561,None,./data/Subject_05/Session_03/Exp_data/2020_Aug_19_1134/rec_QA_run_02_block_000_trial_024.wav,05,03,Norwegian,B1,True,False,True,False,False,True,True,True,True,True,True,True,No,2,No,No,No,No,2020_Aug_19_1134,nibs_stage_1,3.2.3,59.99447873382777,
2,0,2,0,,,,,0,0,0,0,,,,,,,,,,,,,,,,,,,,,,,,,,,,,,,,,,,,,,,,,,1420.5944118499756,None,,,,,,,,,,,,,,,,,,,,,,,,,,05,03,Norwegian,B1,True,False,True,False,False,True,True,True,True,True,True,True,No,2,No,No,No,No,2020_Aug_19_1134,nibs_stage_1,3.2.3,59.99447873382777,
2,0,2,0,,,,,1,0,1,0,0,0,0,0,,,,,,,,,,,,,,,,,,,,,,,,,,,,,,,,,,,,,,,,,,,,,,,,,Listen to the question and speak out your answer!,1435.8627758026123,None,1435.8453236818314,1437.86199593544,"Wenn ich einmal angefangen habe, kann mich nichts mehr aufhalten.",aufhalten,1437.2453080415726,1440.9959688186646,1441.3788241147995,None,1452.4461342096329,None,1453.862953901291,None,./data/Subject_05/Session_03/Exp_data/2020_Aug_19_1134/rec_QA_run_02_block_001_trial_000.wav,05,03,Norwegian,B1,True,False,True,False,False,True,True,True,True,True,True,True,No,2,No,No,No,No,2020_Aug_19_1134,nibs_stage_1,3.2.3,59.99447873382777,
2,0,2,0,,,,,1,0,1,0,1,0,1,0,,,,,,,,,,,,,,,,,,,,,,,,,,,,,,,,,,,,,,,,,,,,,,,,,Listen to the question and speak out your answer!,1456.9297399520874,None,1456.8964154720306,1458.9298198223114,"Weil er so hungrig war, hat Franz einmal einen Apfel gestohlen.",gestohlen,1458.3130551576614,None,1462.479933142662,None,1473.4805179834366,None,1474.8975479602814,None,./data/Subject_05/Session_03/Exp_data/2020_Aug_19_1134/rec_QA_run_02_block_001_trial_001.wav,05,03,Norwegian,B1,True,False,True,False,False,True,True,True,True,True,True,True,No,2,No,No,No,No,2020_Aug_19_1134,nibs_stage_1,3.2.3,59.99447873382777,
2,0,2,0,,,,,1,0,1,0,2,0,2,0,,,,,,,,,,,,,,,,,,,,,,,,,,,,,,,,,,,,,,,,,,,,,,,,,Listen to the question and speak out your answer!,1477.9646849632263,None,1477.9307913780212,1479.9644207954407,Ihr fehlt es an ausreichender Berufserfahrung für diese Position.,fehlt,1479.3475271463394,1483.3977148532867,1483.781058192253,None,1494.5483051538467,None,1495.9650340080261,None,./data/Subject_05/Session_03/Exp_data/2020_Aug_19_1134/rec_QA_run_02_block_001_trial_002.wav,05,03,Norwegian,B1,True,False,True,False,False,True,True,True,True,True,True,True,No,2,No,No,No,No,2020_Aug_19_1134,nibs_stage_1,3.2.3,59.99447873382777,
2,0,2,0,,,,,1,0,1,0,3,0,3,0,,,,,,,,,,,,,,,,,,,,,,,,,,,,,,,,,,,,,,,,,,,,,,,,,Listen to the question and speak out your answer!,1498.9831140041351,None,1498.9652013778687,1500.981952905655,Kannst du bitte die Wäsche in die Sonne hängen?,hängen,1500.365161061287,1502.7821679115295,1503.1654151678085,None,1515.5661031007767,None,1516.9830868244171,None,./data/Subject_05/Session_03/Exp_data/2020_Aug_19_1134/rec_QA_run_02_block_001_trial_003.wav,05,03,Norwegian,B1,True,False,True,False,False,True,True,True,True,True,True,True,No,2,No,No,No,No,2020_Aug_19_1134,nibs_stage_1,3.2.3,59.99447873382777,
2,0,2,0,,,,,1,0,1,0,4,0,4,0,,,,,,,,,,,,,,,,,,,,,,,,,,,,,,,,,,,,,,,,,,,,,,,,,Listen to the question and speak out your answer!,1520.0669438838959,None,1520.0330475568771,1522.0664138793945,Toni fliegt mit dem Flugzeug nach.,fliegt,1521.4164952039719,1523.7664058208466,1524.149953007698,None,1536.6338511705399,None,1538.0505909919739,None,./data/Subject_05/Session_03/Exp_data/2020_Aug_19_1134/rec_QA_run_02_block_001_trial_004.wav,05,03,Norwegian,B1,True,False,True,False,False,True,True,True,True,True,True,True,No,2,No,No,No,No,2020_Aug_19_1134,nibs_stage_1,3.2.3,59.99447873382777,
2,0,2,0,,,,,1,0,1,0,5,0,5,0,,,,,,,,,,,,,,,,,,,,,,,,,,,,,,,,,,,,,,,,,,,,,,,,,Listen to the question and speak out your answer!,1541.1180238723755,None,1541.0841763019562,1543.1174938678741,"Wenn ich mich gestresst fühle, muss ich mich selbst daran erinnern, ruhig zu bleiben.",erinnern,1542.5008200407028,1547.2177259922028,1547.6010800600052,1548.6178369522095,1557.6849321126938,None,1559.1016747951508,None,./data/Subject_05/Session_03/Exp_data/2020_Aug_19_1134/rec_QA_run_02_block_001_trial_005.wav,05,03,Norwegian,B1,True,False,True,False,False,True,True,True,True,True,True,True,No,2,No,No,No,No,2020_Aug_19_1134,nibs_stage_1,3.2.3,59.99447873382777,
2,0,2,0,,,,,1,0,1,0,6,0,6,0,,,,,,,,,,,,,,,,,,,,,,,,,,,,,,,,,,,,,,,,,,,,,,,,,Listen to the question and speak out your answer!,1562.1691229343414,None,1562.1352863311768,1564.1686158180237,Die Hausfrau muss jeden Tag Lebensmittel einkaufen.,einkaufen,1563.5519100427628,1566.7693598270416,1567.1187621355057,1568.135585784912,1578.7529910802841,None,1580.1694419384003,None,./data/Subject_05/Session_03/Exp_data/2020_Aug_19_1134/rec_QA_run_02_block_001_trial_006.wav,05,03,Norwegian,B1,True,False,True,False,False,True,True,True,True,True,True,True,No,2,No,No,No,No,2020_Aug_19_1134,nibs_stage_1,3.2.3,59.99447873382777,
2,0,2,0,,,,,1,0,1,0,7,0,7,0,,,,,,,,,,,,,,,,,,,,,,,,,,,,,,,,,,,,,,,,,,,,,,,,,Listen to the question and speak out your answer!,1583.1872079372406,None,1583.1697082519531,1585.1863868236542,Hans und Tina heirateten am Donnerstag in der Kirche.,heirateten,1584.5696870088577,None,1588.6032310724258,None,1599.7706271409988,None,1601.1538829803467,1602.1873018741608,./data/Subject_05/Session_03/Exp_data/2020_Aug_19_1134/rec_QA_run_02_block_001_trial_007.wav,05,03,Norwegian,B1,True,False,True,False,False,True,True,True,True,True,True,True,No,2,No,No,No,No,2020_Aug_19_1134,nibs_stage_1,3.2.3,59.99447873382777,
2,0,2,0,,,,,1,0,1,0,8,0,8,0,,,,,,,,,,,,,,,,,,,,,,,,,,,,,,,,,,,,,,,,,,,,,,,,,Listen to the question and speak out your answer!,1604.2546708583832,None,1604.2208223342896,1606.2541508674622,Diese beiden Handschuhe gehören zusammen.,gehören,1605.6375881433487,1608.2209339141846,1608.6042660474777,None,1620.804917216301,1621.8216300010681,1622.2216458320618,None,./data/Subject_05/Session_03/Exp_data/2020_Aug_19_1134/rec_QA_run_02_block_001_trial_008.wav,05,03,Norwegian,B1,True,False,True,False,False,True,True,True,True,True,True,True,No,2,No,No,No,No,2020_Aug_19_1134,nibs_stage_1,3.2.3,59.99447873382777,
2,0,2,0,,,,,1,0,1,0,9,0,9,0,,,,,,,,,,,,,,,,,,,,,,,,,,,,,,,,,,,,,,,,,,,,,,,,,Listen to the question and speak out your answer!,1625.2891337871552,None,1625.2552053928375,1627.2885868549347,"Mein Bett ist gemütlich und warm, ich möchte nicht aufstehen.",aufstehen,1626.6385551691055,1630.1554129123688,1630.5721040964127,None,1641.839362025261,None,1643.2560949325562,None,./data/Subject_05/Session_03/Exp_data/2020_Aug_19_1134/rec_QA_run_02_block_001_trial_009.wav,05,03,Norwegian,B1,True,False,True,False,False,True,True,True,True,True,True,True,No,2,No,No,No,No,2020_Aug_19_1134,nibs_stage_1,3.2.3,59.99447873382777,
2,0,2,0,,,,,1,0,1,0,10,0,10,0,,,,,,,,,,,,,,,,,,,,,,,,,,,,,,,,,,,,,,,,,,,,,,,,,Listen to the question and speak out your answer!,1646.3235449790955,None,1646.2896604537964,1648.323086977005,"Ich möchte dich nicht täuschen, also werde ich dir die Wahrheit sagen.",täuschen,1647.6729830503464,None,1651.8068631887436,None,1662.8904629945755,None,1664.3072168827057,None,./data/Subject_05/Session_03/Exp_data/2020_Aug_19_1134/rec_QA_run_02_block_001_trial_010.wav,05,03,Norwegian,B1,True,False,True,False,False,True,True,True,True,True,True,True,No,2,No,No,No,No,2020_Aug_19_1134,nibs_stage_1,3.2.3,59.99447873382777,
2,0,2,0,,,,,1,0,1,0,11,0,11,0,,,,,,,,,,,,,,,,,,,,,,,,,,,,,,,,,,,,,,,,,,,,,,,,,Listen to the question and speak out your answer!,1667.3743779659271,None,1667.3574396371841,1669.3741238117218,"Zu den hundeartigen Tieren, die in Österreich leben, gehört der Wolf.",gehört,1668.7574311494827,1673.1743268966675,1673.5577121973038,None,1683.9582430124283,None,1685.3750648498535,None,./data/Subject_05/Session_03/Exp_data/2020_Aug_19_1134/rec_QA_run_02_block_001_trial_011.wav,05,03,Norwegian,B1,True,False,True,False,False,True,True,True,True,True,True,True,No,2,No,No,No,No,2020_Aug_19_1134,nibs_stage_1,3.2.3,59.99447873382777,
2,0,2,0,,,,,1,0,1,0,12,0,12,0,,,,,,,,,,,,,,,,,,,,,,,,,,,,,,,,,,,,,,,,,,,,,,,,,Listen to the question and speak out your answer!,1688.392704963684,None,1688.3752074241638,1690.3919088840485,Das Kind kann die Tischkante noch nicht erreichen.,erreichen,1689.7752040624619,None,1692.8086811304092,1693.8257038593292,1704.9759920835495,None,1706.3927309513092,None,./data/Subject_05/Session_03/Exp_data/2020_Aug_19_1134/rec_QA_run_02_block_001_trial_012.wav,05,03,Norwegian,B1,True,False,True,False,False,True,True,True,True,True,True,True,No,2,No,No,No,No,2020_Aug_19_1134,nibs_stage_1,3.2.3,59.99447873382777,
2,0,2,0,,,,,1,0,1,0,13,0,13,0,,,,,,,,,,,,,,,,,,,,,,,,,,,,,,,,,,,,,,,,,,,,,,,,,Listen to the question and speak out your answer!,1709.4604818820953,None,1709.4429765939713,1711.4596707820892,Die Ergebnisse werden auf einer Skala von eins bis zehn angezeigt.,angezeigt,1710.842980980873,1715.0599808692932,1715.4432121515274,None,1726.0437761545181,None,1727.460483789444,None,./data/Subject_05/Session_03/Exp_data/2020_Aug_19_1134/rec_QA_run_02_block_001_trial_013.wav,05,03,Norwegian,B1,True,False,True,False,False,True,True,True,True,True,True,True,No,2,No,No,No,No,2020_Aug_19_1134,nibs_stage_1,3.2.3,59.99447873382777,
2,0,2,0,,,,,1,0,1,0,14,0,14,0,,,,,,,,,,,,,,,,,,,,,,,,,,,,,,,,,,,,,,,,,,,,,,,,,Listen to the question and speak out your answer!,1730.4946248531342,None,1730.4607572555542,1732.494031906128,Wir sind mit dem Jeep auf Safari in Kenia gefahren.,gefahren,1731.8440750837326,1735.2277069091797,1735.6110011339188,None,1747.0448981523514,None,1748.4616079330444,None,./data/Subject_05/Session_03/Exp_data/2020_Aug_19_1134/rec_QA_run_02_block_001_trial_014.wav,05,03,Norwegian,B1,True,False,True,False,False,True,True,True,True,True,True,True,No,2,No,No,No,No,2020_Aug_19_1134,nibs_stage_1,3.2.3,59.99447873382777,
2,0,2,0,,,,,1,0,1,0,15,0,15,0,,,,,,,,,,,,,,,,,,,,,,,,,,,,,,,,,,,,,,,,,,,,,,,,,Listen to the question and speak out your answer!,1751.5300109386444,None,1751.4951813220978,1753.528503894806,"Der Zug fährt gleich ab, wir müssen uns beeilen.",beeilen,1752.9118341207504,None,1756.178680062294,None,1768.1126362085342,None,1769.5294399261475,None,./data/Subject_05/Session_03/Exp_data/2020_Aug_19_1134/rec_QA_run_02_block_001_trial_015.wav,05,03,Norwegian,B1,True,False,True,False,False,True,True,True,True,True,True,True,No,2,No,No,No,No,2020_Aug_19_1134,nibs_stage_1,3.2.3,59.99447873382777,
2,0,2,0,,,,,1,0,1,0,16,0,16,0,,,,,,,,,,,,,,,,,,,,,,,,,,,,,,,,,,,,,,,,,,,,,,,,,Listen to the question and speak out your answer!,1772.5468339920044,None,1772.513101220131,1774.546306848526,Eine Stunde kann man in Minuten und Sekunden unterteilen.,unterteilen,1773.8962641954422,1777.3465189933777,1777.7298101186752,1778.7465209960938,1789.0970681905746,None,1790.5140578746796,None,./data/Subject_05/Session_03/Exp_data/2020_Aug_19_1134/rec_QA_run_02_block_001_trial_016.wav,05,03,Norwegian,B1,True,False,True,False,False,True,True,True,True,True,True,True,No,2,No,No,No,No,2020_Aug_19_1134,nibs_stage_1,3.2.3,59.99447873382777,
2,0,2,0,,,,,1,0,1,0,17,0,17,0,,,,,,,,,,,,,,,,,,,,,,,,,,,,,,,,,,,,,,,,,,,,,,,,,Listen to the question and speak out your answer!,1793.5807359218597,None,1793.5473792552948,1795.5806620121002,Lenas Hund Tobi wird immer am Abend gefüttert.,gefüttert,1794.9306141138077,None,1798.264221072197,None,1810.1315141916275,None,1811.548283815384,None,./data/Subject_05/Session_03/Exp_data/2020_Aug_19_1134/rec_QA_run_02_block_001_trial_017.wav,05,03,Norwegian,B1,True,False,True,False,False,True,True,True,True,True,True,True,No,2,No,No,No,No,2020_Aug_19_1134,nibs_stage_1,3.2.3,59.99447873382777,
2,0,2,0,,,,,1,0,1,0,18,0,18,0,,,,,,,,,,,,,,,,,,,,,,,,,,,,,,,,,,,,,,,,,,,,,,,,,Listen to the question and speak out your answer!,1814.6153299808502,None,1814.5820243358612,1816.6151719093323,Der Regenbogen besteht aus vielen Farben.,besteht,1815.998587012291,None,1819.0653120279312,None,1831.1992729902267,None,1832.616005897522,None,./data/Subject_05/Session_03/Exp_data/2020_Aug_19_1134/rec_QA_run_02_block_001_trial_018.wav,05,03,Norwegian,B1,True,False,True,False,False,True,True,True,True,True,True,True,No,2,No,No,No,No,2020_Aug_19_1134,nibs_stage_1,3.2.3,59.99447873382777,
2,0,2,0,,,,,1,0,1,0,19,0,19,0,,,,,,,,,,,,,,,,,,,,,,,,,,,,,,,,,,,,,,,,,,,,,,,,,Listen to the question and speak out your answer!,1835.6502499580383,None,1835.6161422729492,1837.6495909690857,"Wenn Sie mit dem Vertrag nicht zufrieden sind, können Sie ihn vor seinem Ablauf kündigen.",kündigen,1837.0328191518784,1841.7832608222961,1842.1665171384811,None,1852.2338041067123,None,1853.6504509449005,None,./data/Subject_05/Session_03/Exp_data/2020_Aug_19_1134/rec_QA_run_02_block_001_trial_019.wav,05,03,Norwegian,B1,True,False,True,False,False,True,True,True,True,True,True,True,No,2,No,No,No,No,2020_Aug_19_1134,nibs_stage_1,3.2.3,59.99447873382777,
2,0,2,0,,,,,1,0,1,0,20,0,20,0,,,,,,,,,,,,,,,,,,,,,,,,,,,,,,,,,,,,,,,,,,,,,,,,,Listen to the question and speak out your answer!,1856.6845619678497,None,1856.65074634552,1858.6840369701385,"Sie besichtigten das Haus, bevor sie es kauften.",besichtigten,1858.034054160118,None,1861.6008611917496,None,1873.2348300218582,None,1874.6515138149261,None,./data/Subject_05/Session_03/Exp_data/2020_Aug_19_1134/rec_QA_run_02_block_001_trial_020.wav,05,03,Norwegian,B1,True,False,True,False,False,True,True,True,True,True,True,True,No,2,No,No,No,No,2020_Aug_19_1134,nibs_stage_1,3.2.3,59.99447873382777,
2,0,2,0,,,,,1,0,1,0,21,0,21,0,,,,,,,,,,,,,,,,,,,,,,,,,,,,,,,,,,,,,,,,,,,,,,,,,Listen to the question and speak out your answer!,1877.7859449386597,None,1877.768469452858,1879.7851419448853,Ich gratuliere dir zum Bestehen dieser schwierigen Prüfung.,gratuliere,1879.1686140298843,1882.6519658565521,1883.0019921064377,None,1894.369539141655,1895.3859658241272,1895.7859909534454,None,./data/Subject_05/Session_03/Exp_data/2020_Aug_19_1134/rec_QA_run_02_block_001_trial_021.wav,05,03,Norwegian,B1,True,False,True,False,False,True,True,True,True,True,True,True,No,2,No,No,No,No,2020_Aug_19_1134,nibs_stage_1,3.2.3,59.99447873382777,
2,0,2,0,,,,,1,0,1,0,22,0,22,0,,,,,,,,,,,,,,,,,,,,,,,,,,,,,,,,,,,,,,,,,,,,,,,,,Listen to the question and speak out your answer!,1898.8367648124695,None,1898.8029285669327,1900.8362419605255,Sie hat das Gemüse in Olivenöl gebraten.,gebraten,1900.1865659952164,1902.9697079658508,1903.3863941431046,None,1915.3870371580124,None,1916.8037707805634,None,./data/Subject_05/Session_03/Exp_data/2020_Aug_19_1134/rec_QA_run_02_block_001_trial_022.wav,05,03,Norwegian,B1,True,False,True,False,False,True,True,True,True,True,True,True,No,2,No,No,No,No,2020_Aug_19_1134,nibs_stage_1,3.2.3,59.99447873382777,
2,0,2,0,,,,,1,0,1,0,23,0,23,0,,,,,,,,,,,,,,,,,,,,,,,,,,,,,,,,,,,,,,,,,,,,,,,,,Listen to the question and speak out your answer!,1919.871174812317,None,1919.8373672962189,1921.8706748485565,"Wie schmeckt Iris die Melone, die ich im Geschäft gekauft habe?",schmeckt,1921.2539921998978,1925.1708669662476,1925.5208860635757,1926.537616968155,1936.4547830820084,None,1937.871516942978,None,./data/Subject_05/Session_03/Exp_data/2020_Aug_19_1134/rec_QA_run_02_block_001_trial_023.wav,05,03,Norwegian,B1,True,False,True,False,False,True,True,True,True,True,True,True,No,2,No,No,No,No,2020_Aug_19_1134,nibs_stage_1,3.2.3,59.99447873382777,
2,0,2,0,,,,,1,0,1,0,24,0,24,0,,,,,,,,,,,,,,,,,,,,,,,,,,,,,,,,,,,,,,,,,,,,,,,,,Listen to the question and speak out your answer!,1940.8888959884644,None,1940.8717613220215,1942.8884518146515,Afrika liegt südlich von Europa .,liegt,1942.2717510461807,1944.8553359508514,1945.2385660409927,None,1957.4724551439285,None,1958.8892707824707,None,./data/Subject_05/Session_03/Exp_data/2020_Aug_19_1134/rec_QA_run_02_block_001_trial_024.wav,05,03,Norwegian,B1,True,False,True,False,False,True,True,True,True,True,True,True,No,2,No,No,No,No,2020_Aug_19_1134,nibs_stage_1,3.2.3,59.99447873382777,
