run.thisRepN,run.thisTrialN,run.thisN,run.thisIndex,QA_block.thisRepN,QA_block.thisTrialN,QA_block.thisN,QA_block.thisIndex,QA_trial.thisRepN,QA_trial.thisTrialN,QA_trial.thisN,QA_trial.thisIndex,fade_in_text.text,fade_in_text.started,fade_in_text.stopped,RS_intro_title.started,RS_intro_title.stopped,RS_intro_text.text,RS_intro_text.started,RS_intro_text.stopped,RS_intro_audio.started,RS_intro_audio.stopped,RS_rec_text.text,RS_rec_text.started,RS_rec_text.stopped,Pause_cont.started,Pause_cont.stopped,QA_intro_title.started,QA_intro_title.stopped,QA_intro_text.text,QA_intro_text.started,QA_intro_text.stopped,QA_intro_audio.started,QA_intro_audio.stopped,QA_intro_cont.started,QA_intro_cont.stopped,QA_rec_text.text,QA_rec_text.started,QA_rec_text.stopped,QA_rec_beep_hint.started,QA_rec_beep_hint.stopped,QA_rec_question.sen_text,QA_rec_question.cen_text,QA_rec_question.started,QA_rec_question.stopped,QA_rec_beep_start.started,QA_rec_beep_start.stopped,QA_rec_beep_end.started,QA_rec_beep_end.stopped,QA_rec_break.started,QA_rec_break.stopped,filename,participant,session,First language,German level,Full_screen,Instruction,Intro,Artifact,Cali_pre,Fade_in_out,Artifact_within,Resting_State,QA,Pause,Cali_post,End,Breakpoint_Cali_pre_trial,Breakpoint_Run,Breakpoint_RS_block,Breakpoint_QA_block,Breakpoint_QA_trial,Breakpoint_Cali_post_trial,date,expName,psychopyVersion,frameRate,
3,0,3,0,0,0,0,0,0,0,0,0,Please remain seated until further instruction via the earphone.,57.86095595359802,None,267.288724899292,None," - Task: Keep seated and relaxed with either      
             opening or closing eyes                  
 - Beep sound with decreasing pitch: Block finish 
",267.288724899292,None,267.2879709243774,None,"Please keep relaxed and open your eyes.
Note: Blinking is allowed.",290.30718994140625,470.3162958621979,473.70003294944763,None,489.10092186927795,529.1028258800507," - Task: Listen to the question& Speak out answer 
 - Melodious beep sound: Trial start              
 - Silent sound (blank): censored word            
 - Beep sound with increasing pitch: Rec. start   
 - Beep sound with decreasing pitch: Rec. finish  
",489.10092186927795,529.1028258800507,489.0990604877472,None,528.4860048294067,None,Listen to the question and speak out your answer!,532.4199569225311,None,532.4181438446045,534.4196639060974,"Wenn Sie nicht aufpassen, könnten Sie sich die Finger verletzen.",aufpassen,533.802956533432,None,537.5198356628418,None,549.0036966323853,550.0038359165192,550.4038589000702,551.4040758609772,./data/Subject_05/Session_03/Exp_data/2020_Aug_19_1217/rec_QA_run_03_block_000_trial_000.wav,05,03,Norwegian,B1,True,False,True,False,False,True,True,True,True,True,True,True,No,3,No,No,No,No,2020_Aug_19_1217,nibs_stage_1,3.2.3,59.99199020516518,
3,0,3,0,0,0,0,0,1,0,1,0,,,,,,,,,,,,,,,,,,,,,,,,,Listen to the question and speak out your answer!,553.4705889225006,None,553.4530719757081,555.4541549682617,"Der Mann läuft zu schell, um die Post zu schicken.",schicken,554.8540446281434,None,558.0875894546509,None,570.0550956249238,571.0549647808075,571.4549658298492,572.4550218582153,./data/Subject_05/Session_03/Exp_data/2020_Aug_19_1217/rec_QA_run_03_block_000_trial_001.wav,05,03,Norwegian,B1,True,False,True,False,False,True,True,True,True,True,True,True,No,3,No,No,No,No,2020_Aug_19_1217,nibs_stage_1,3.2.3,59.99199020516518,
3,0,3,0,0,0,0,0,2,0,2,0,,,,,,,,,,,,,,,,,,,,,,,,,Listen to the question and speak out your answer!,574.5051229000092,None,574.4875039100648,576.4886147975922,Flora hat Musik studiert und dirigiert jetzt das Orchester.,studiert,575.8887226104737,579.7887439727783,580.1887425899506,None,591.0893744945527,None,592.4894318580627,593.4896879196167,./data/Subject_05/Session_03/Exp_data/2020_Aug_19_1217/rec_QA_run_03_block_000_trial_002.wav,05,03,Norwegian,B1,True,False,True,False,False,True,True,True,True,True,True,True,No,3,No,No,No,No,2020_Aug_19_1217,nibs_stage_1,3.2.3,59.99199020516518,
3,0,3,0,0,0,0,0,3,0,3,0,,,,,,,,,,,,,,,,,,,,,,,,,Listen to the question and speak out your answer!,595.5394279956818,None,595.5221699714662,597.5227558612823,Ein gutes Gehalt heißt oft harte Arbeit.,heißt,596.9228145599366,599.656290769577,600.0562486171723,None,612.1236764907837,613.1239488124847,613.5238797664642,614.524083852768,./data/Subject_05/Session_03/Exp_data/2020_Aug_19_1217/rec_QA_run_03_block_000_trial_003.wav,05,03,Norwegian,B1,True,False,True,False,False,True,True,True,True,True,True,True,No,3,No,No,No,No,2020_Aug_19_1217,nibs_stage_1,3.2.3,59.99199020516518,
3,0,3,0,0,0,0,0,4,0,4,0,,,,,,,,,,,,,,,,,,,,,,,,,Listen to the question and speak out your answer!,616.5738577842712,None,616.5565659046174,618.5572309494019,Leni bewegt beim Lesen die Lippen.,bewegt,617.9572906017304,620.1239857673645,620.5406496047974,None,633.158265542984,None,634.5582377910614,635.5583488941193,./data/Subject_05/Session_03/Exp_data/2020_Aug_19_1217/rec_QA_run_03_block_000_trial_004.wav,05,03,Norwegian,B1,True,False,True,False,False,True,True,True,True,True,True,True,No,3,No,No,No,No,2020_Aug_19_1217,nibs_stage_1,3.2.3,59.99199020516518,
3,0,3,0,0,0,0,0,5,0,5,0,,,,,,,,,,,,,,,,,,,,,,,,,Listen to the question and speak out your answer!,637.6082468032837,None,637.6074906349182,639.6083159446716,"Er merkte sofort, dass wir versuchten, ihn zu belügen.",merkte,638.9915234565735,642.4918479919434,642.9085185050965,None,654.1924156665802,655.1924059391022,655.6093349456787,None,./data/Subject_05/Session_03/Exp_data/2020_Aug_19_1217/rec_QA_run_03_block_000_trial_005.wav,05,03,Norwegian,B1,True,False,True,False,False,True,True,True,True,True,True,True,No,3,No,No,No,No,2020_Aug_19_1217,nibs_stage_1,3.2.3,59.99199020516518,
3,0,3,0,0,0,0,0,6,0,6,0,,,,,,,,,,,,,,,,,,,,,,,,,Listen to the question and speak out your answer!,658.659726858139,None,658.6419075489044,660.6428439617157,"Die Eisberge lösen sich auf, und der Wasserpegel steigt.",steigt,660.0262655735016,663.5764899253845,663.9929246425629,None,675.2268626213074,None,676.6269388198853,677.626993894577,./data/Subject_05/Session_03/Exp_data/2020_Aug_19_1217/rec_QA_run_03_block_000_trial_006.wav,05,03,Norwegian,B1,True,False,True,False,False,True,True,True,True,True,True,True,No,3,No,No,No,No,2020_Aug_19_1217,nibs_stage_1,3.2.3,59.99199020516518,
3,0,3,0,0,0,0,0,7,0,7,0,,,,,,,,,,,,,,,,,,,,,,,,,Listen to the question and speak out your answer!,679.6771128177643,None,679.6594759464265,681.6605448722839,"Wir müssen ein Treffen planen, um die Änderungen zu besprechen.",planen,681.0437616825104,684.6609709262848,685.0607115745545,None,696.2445415973664,None,697.6447219848633,698.644767999649,./data/Subject_05/Session_03/Exp_data/2020_Aug_19_1217/rec_QA_run_03_block_000_trial_007.wav,05,03,Norwegian,B1,True,False,True,False,False,True,True,True,True,True,True,True,No,3,No,No,No,No,2020_Aug_19_1217,nibs_stage_1,3.2.3,59.99199020516518,
3,0,3,0,0,0,0,0,8,0,8,0,,,,,,,,,,,,,,,,,,,,,,,,,Listen to the question and speak out your answer!,700.7282118797302,None,700.7104295253754,702.711639881134,Wir haben im Wald Beeren und Pilze gesammelt.,gesammelt,702.0949446678162,None,705.278492641449,None,717.2957446098328,None,718.6957709789276,719.6958739757538,./data/Subject_05/Session_03/Exp_data/2020_Aug_19_1217/rec_QA_run_03_block_000_trial_008.wav,05,03,Norwegian,B1,True,False,True,False,False,True,True,True,True,True,True,True,No,3,No,No,No,No,2020_Aug_19_1217,nibs_stage_1,3.2.3,59.99199020516518,
3,0,3,0,0,0,0,0,9,0,9,0,,,,,,,,,,,,,,,,,,,,,,,,,Listen to the question and speak out your answer!,721.7960379123688,None,721.7784036159516,723.7961719036102,"Es ist mir einfach unbegreiflich, wie so etwas Dummes passiert.",passiert,723.1793796539307,None,727.37959856987,None,738.3801974773407,None,739.7969567775726,None,./data/Subject_05/Session_03/Exp_data/2020_Aug_19_1217/rec_QA_run_03_block_000_trial_009.wav,05,03,Norwegian,B1,True,False,True,False,False,True,True,True,True,True,True,True,No,3,No,No,No,No,2020_Aug_19_1217,nibs_stage_1,3.2.3,59.99199020516518,
3,0,3,0,0,0,0,0,10,0,10,0,,,,,,,,,,,,,,,,,,,,,,,,,Listen to the question and speak out your answer!,742.8479218482971,None,742.8294810295106,744.8471977710724,"Thomas hat schon so kurze Haare, er muss sich nicht kämmen.",kämmen,744.2304965972901,747.6473498344421,748.0307006359101,None,759.4312724590302,760.4480328559875,760.8480539321899,None,./data/Subject_05/Session_03/Exp_data/2020_Aug_19_1217/rec_QA_run_03_block_000_trial_010.wav,05,03,Norwegian,B1,True,False,True,False,False,True,True,True,True,True,True,True,No,3,No,No,No,No,2020_Aug_19_1217,nibs_stage_1,3.2.3,59.99199020516518,
3,0,3,0,0,0,0,0,11,0,11,0,,,,,,,,,,,,,,,,,,,,,,,,,Listen to the question and speak out your answer!,763.9151699542999,None,763.8972767353058,765.9153099060059,Der Ton macht die Musik.,macht,765.298272562027,766.9483468532562,767.2983746051789,None,780.4990674972535,None,781.9158179759979,None,./data/Subject_05/Session_03/Exp_data/2020_Aug_19_1217/rec_QA_run_03_block_000_trial_011.wav,05,03,Norwegian,B1,True,False,True,False,False,True,True,True,True,True,True,True,No,3,No,No,No,No,2020_Aug_19_1217,nibs_stage_1,3.2.3,59.99199020516518,
3,0,3,0,0,0,0,0,12,0,12,0,,,,,,,,,,,,,,,,,,,,,,,,,Listen to the question and speak out your answer!,784.9827439785004,None,784.9483448505403,786.9827289581299,"Ich habe mir ein neues Ziel gesetzt, das ich erreichen möchte.",erreichen,786.3326894760132,None,790.4329185009003,None,801.5337016105652,None,802.9502639770508,None,./data/Subject_05/Session_03/Exp_data/2020_Aug_19_1217/rec_QA_run_03_block_000_trial_012.wav,05,03,Norwegian,B1,True,False,True,False,False,True,True,True,True,True,True,True,No,3,No,No,No,No,2020_Aug_19_1217,nibs_stage_1,3.2.3,59.99199020516518,
3,0,3,0,0,0,0,0,13,0,13,0,,,,,,,,,,,,,,,,,,,,,,,,,Listen to the question and speak out your answer!,806.0185778141022,None,805.9994576931,808.0171778202057,Die Polizei hat die Einzelheiten des gestohlenen Autos auf einem Zettel notiert.,notiert,807.400508594513,812.3173978328705,812.7007736682892,None,822.6012715816498,None,824.0180289745331,None,./data/Subject_05/Session_03/Exp_data/2020_Aug_19_1217/rec_QA_run_03_block_000_trial_013.wav,05,03,Norwegian,B1,True,False,True,False,False,True,True,True,True,True,True,True,No,3,No,No,No,No,2020_Aug_19_1217,nibs_stage_1,3.2.3,59.99199020516518,
3,0,3,0,0,0,0,0,14,0,14,0,,,,,,,,,,,,,,,,,,,,,,,,,Listen to the question and speak out your answer!,827.0854887962341,None,827.0505579948426,829.0849449634552,"Sie scheinen nicht zu wissen, mit wem Sie es zu tun haben.",scheinen,828.4350034713746,831.8851909637451,832.3017916202546,833.3184688091278,843.635727596283,844.6524348258972,845.0524749755859,None,./data/Subject_05/Session_03/Exp_data/2020_Aug_19_1217/rec_QA_run_03_block_000_trial_014.wav,05,03,Norwegian,B1,True,False,True,False,False,True,True,True,True,True,True,True,No,3,No,No,No,No,2020_Aug_19_1217,nibs_stage_1,3.2.3,59.99199020516518,
3,0,3,0,0,0,0,0,15,0,15,0,,,,,,,,,,,,,,,,,,,,,,,,,Listen to the question and speak out your answer!,848.1195669174194,None,848.1017986297608,850.1193878650665,"Er lieh mir Geld, ohne Zinsen zu verlangen.",lieh,849.5026785850525,852.152834892273,852.5362815380097,None,864.7035364627839,None,866.1202669143677,None,./data/Subject_05/Session_03/Exp_data/2020_Aug_19_1217/rec_QA_run_03_block_000_trial_015.wav,05,03,Norwegian,B1,True,False,True,False,False,True,True,True,True,True,True,True,No,3,No,No,No,No,2020_Aug_19_1217,nibs_stage_1,3.2.3,59.99199020516518,
3,0,3,0,0,0,0,0,16,0,16,0,,,,,,,,,,,,,,,,,,,,,,,,,Listen to the question and speak out your answer!,869.1371009349823,None,869.1027593135834,871.137170791626,Meine Mutter erzählte mir immer eine Gutenachtgeschichte.,erzählte,870.4871155738831,None,874.2539655685425,875.2707049846649,885.6878754615784,None,887.1046228408813,None,./data/Subject_05/Session_03/Exp_data/2020_Aug_19_1217/rec_QA_run_03_block_000_trial_016.wav,05,03,Norwegian,B1,True,False,True,False,False,True,True,True,True,True,True,True,No,3,No,No,No,No,2020_Aug_19_1217,nibs_stage_1,3.2.3,59.99199020516518,
3,0,3,0,0,0,0,0,17,0,17,0,,,,,,,,,,,,,,,,,,,,,,,,,Listen to the question and speak out your answer!,890.1729218959808,None,890.1538747310639,892.1716997623444,Das Programm kannst Du kostenlos herunterladen.,herunterladen,891.5548755645752,894.4717299938202,894.8553876399994,None,906.7557224750519,None,908.1724388599396,None,./data/Subject_05/Session_03/Exp_data/2020_Aug_19_1217/rec_QA_run_03_block_000_trial_017.wav,05,03,Norwegian,B1,True,False,True,False,False,True,True,True,True,True,True,True,No,3,No,No,No,No,2020_Aug_19_1217,nibs_stage_1,3.2.3,59.99199020516518,
3,0,3,0,0,0,0,0,18,0,18,0,,,,,,,,,,,,,,,,,,,,,,,,,Listen to the question and speak out your answer!,911.2232167720795,None,911.1883162975312,913.2227067947388,Seine Großmutter kann ganz spannend erzählen.,erzählen,912.5728566169739,None,915.6061446189881,None,927.7734825134278,928.7902119159698,929.1902289390564,None,./data/Subject_05/Session_03/Exp_data/2020_Aug_19_1217/rec_QA_run_03_block_000_trial_018.wav,05,03,Norwegian,B1,True,False,True,False,False,True,True,True,True,True,True,True,No,3,No,No,No,No,2020_Aug_19_1217,nibs_stage_1,3.2.3,59.99199020516518,
3,0,3,0,0,0,0,0,19,0,19,0,,,,,,,,,,,,,,,,,,,,,,,,,Listen to the question and speak out your answer!,932.2575469017029,None,932.2394107341767,934.2571439743042,Sie haben Beeren gesammelt und wilde Tiere gejagt.,gejagt,933.6404275417328,None,937.3072804927826,None,948.8412155628205,None,950.2579698562622,None,./data/Subject_05/Session_03/Exp_data/2020_Aug_19_1217/rec_QA_run_03_block_000_trial_019.wav,05,03,Norwegian,B1,True,False,True,False,False,True,True,True,True,True,True,True,No,3,No,No,No,No,2020_Aug_19_1217,nibs_stage_1,3.2.3,59.99199020516518,
3,0,3,0,0,0,0,0,20,0,20,0,,,,,,,,,,,,,,,,,,,,,,,,,Listen to the question and speak out your answer!,953.3597288131714,None,953.3404951095581,955.3582379817963,Du darfst diese Bücher aufeinander liegen.,liegen,954.7414814949036,957.1916778087616,957.5750286102295,None,969.9423496246338,970.9590709209442,971.3590958118439,None,./data/Subject_05/Session_03/Exp_data/2020_Aug_19_1217/rec_QA_run_03_block_000_trial_020.wav,05,03,Norwegian,B1,True,False,True,False,False,True,True,True,True,True,True,True,No,3,No,No,No,No,2020_Aug_19_1217,nibs_stage_1,3.2.3,59.99199020516518,
3,0,3,0,0,0,0,0,21,0,21,0,,,,,,,,,,,,,,,,,,,,,,,,,Listen to the question and speak out your answer!,974.4265518188477,None,974.3916558265687,976.4260079860687,"Wir müssen Mittel und Wege finden, um das zu ändern.",finden,975.8093285083771,None,979.3761825084687,None,991.0101356029511,None,992.4268629550934,None,./data/Subject_05/Session_03/Exp_data/2020_Aug_19_1217/rec_QA_run_03_block_000_trial_021.wav,05,03,Norwegian,B1,True,False,True,False,False,True,True,True,True,True,True,True,No,3,No,No,No,No,2020_Aug_19_1217,nibs_stage_1,3.2.3,59.99199020516518,
3,0,3,0,0,0,0,0,22,0,22,0,,,,,,,,,,,,,,,,,,,,,,,,,Listen to the question and speak out your answer!,995.4615669250488,None,995.4427267074585,997.4604449272156,"Meine Eltern schauten vorbei, um sich meinen neuen Garten anzusehen.",anzusehen,996.8437556743622,None,1001.2773315429688,None,1012.0445556163788,None,1013.4612917900085,None,./data/Subject_05/Session_03/Exp_data/2020_Aug_19_1217/rec_QA_run_03_block_000_trial_022.wav,05,03,Norwegian,B1,True,False,True,False,False,True,True,True,True,True,True,True,No,3,No,No,No,No,2020_Aug_19_1217,nibs_stage_1,3.2.3,59.99199020516518,
3,0,3,0,0,0,0,0,23,0,23,0,,,,,,,,,,,,,,,,,,,,,,,,,Listen to the question and speak out your answer!,1016.4955768585205,None,1016.477272605896,1018.4948859214783,Der Fallschirm wird im Fall geöffnet.,geöffnet,1017.8783156394959,1020.061723947525,1020.4449824810029,1021.4617228507996,1033.0791356086731,None,1034.495766878128,None,./data/Subject_05/Session_03/Exp_data/2020_Aug_19_1217/rec_QA_run_03_block_000_trial_023.wav,05,03,Norwegian,B1,True,False,True,False,False,True,True,True,True,True,True,True,No,3,No,No,No,No,2020_Aug_19_1217,nibs_stage_1,3.2.3,59.99199020516518,
3,0,3,0,0,0,0,0,24,0,24,0,,,,,,,,,,,,,,,,,,,,,,,,,Listen to the question and speak out your answer!,1037.5293898582458,None,1037.5117505550386,1039.529352903366,Die Verkäuferin beantwortete meine Fragen und konnte mich beraten.,beraten,1038.9125506401062,None,1043.3795535087586,None,1054.0800916671753,1055.0969188213348,1055.496985912323,None,./data/Subject_05/Session_03/Exp_data/2020_Aug_19_1217/rec_QA_run_03_block_000_trial_024.wav,05,03,Norwegian,B1,True,False,True,False,False,True,True,True,True,True,True,True,No,3,No,No,No,No,2020_Aug_19_1217,nibs_stage_1,3.2.3,59.99199020516518,
3,0,3,0,0,0,0,0,,,,,,,,,,,,,,,,,,1059.54705286026,None,,,,,,,,,,,,,,,,,,,,,,,,,,05,03,Norwegian,B1,True,False,True,False,False,True,True,True,True,True,True,True,No,3,No,No,No,No,2020_Aug_19_1217,nibs_stage_1,3.2.3,59.99199020516518,
3,0,3,0,1,0,1,0,0,0,0,0,,,,,,,,,,,,,,,,,,,,,,,,,Listen to the question and speak out your answer!,1073.731752872467,None,1073.696335411072,1075.7312309741974,"Mein Bruder hat uns zum Abendessen eingeladen, ich habe bereits zugesagt.",eingeladen,1075.1145305156708,None,1080.1147756099701,None,1090.315244626999,None,1091.7320699691772,None,./data/Subject_05/Session_03/Exp_data/2020_Aug_19_1217/rec_QA_run_03_block_001_trial_000.wav,05,03,Norwegian,B1,True,False,True,False,False,True,True,True,True,True,True,True,No,3,No,No,No,No,2020_Aug_19_1217,nibs_stage_1,3.2.3,59.99199020516518,
3,0,3,0,1,0,1,0,1,0,1,0,,,,,,,,,,,,,,,,,,,,,,,,,Listen to the question and speak out your answer!,1094.7661938667297,None,1094.731293821335,1096.76567196846,"Ich möchte, dass Sie das Wort mit Ihren eigenen Worten erklären!",erklären,1096.148965549469,1099.9993829727173,1100.3825125217438,None,1111.3497526168824,None,1112.766497850418,None,./data/Subject_05/Session_03/Exp_data/2020_Aug_19_1217/rec_QA_run_03_block_001_trial_001.wav,05,03,Norwegian,B1,True,False,True,False,False,True,True,True,True,True,True,True,No,3,No,No,No,No,2020_Aug_19_1217,nibs_stage_1,3.2.3,59.99199020516518,
3,0,3,0,1,0,1,0,2,0,2,0,,,,,,,,,,,,,,,,,,,,,,,,,Listen to the question and speak out your answer!,1115.800577878952,None,1115.7657169342042,1117.8003389835358,"Wir sind stolz auf das, was wir bis jetzt geschafft haben.",geschafft,1117.1833855628968,1120.5334808826447,1120.9169184684754,None,1132.384184551239,1133.401036977768,1133.800948858261,None,./data/Subject_05/Session_03/Exp_data/2020_Aug_19_1217/rec_QA_run_03_block_001_trial_002.wav,05,03,Norwegian,B1,True,False,True,False,False,True,True,True,True,True,True,True,No,3,No,No,No,No,2020_Aug_19_1217,nibs_stage_1,3.2.3,59.99199020516518,
3,0,3,0,1,0,1,0,3,0,3,0,,,,,,,,,,,,,,,,,,,,,,,,,Listen to the question and speak out your answer!,1136.8517198562622,None,1136.8167785167695,1138.8511967658997,"In Europa gibt es vier Jahrezeiten, am Zentralafrika nur eine.",gibt,1138.2013074874878,None,1143.1014284610749,None,1153.401982498169,1154.4186849594116,1154.8187417984009,None,./data/Subject_05/Session_03/Exp_data/2020_Aug_19_1217/rec_QA_run_03_block_001_trial_003.wav,05,03,Norwegian,B1,True,False,True,False,False,True,True,True,True,True,True,True,No,3,No,No,No,No,2020_Aug_19_1217,nibs_stage_1,3.2.3,59.99199020516518,
3,0,3,0,1,0,1,0,4,0,4,0,,,,,,,,,,,,,,,,,,,,,,,,,Listen to the question and speak out your answer!,1157.886174917221,None,1157.8512560367585,1159.8855819702148,Felix muss schon um sechs Uhr früh aufstehen.,aufstehen,1159.2689175128937,None,1162.5357734680176,1163.552500963211,1174.453120660782,None,1175.8698439598083,None,./data/Subject_05/Session_03/Exp_data/2020_Aug_19_1217/rec_QA_run_03_block_001_trial_004.wav,05,03,Norwegian,B1,True,False,True,False,False,True,True,True,True,True,True,True,No,3,No,No,No,No,2020_Aug_19_1217,nibs_stage_1,3.2.3,59.99199020516518,
3,0,3,0,1,0,1,0,5,0,5,0,,,,,,,,,,,,,,,,,,,,,,,,,Listen to the question and speak out your answer!,1178.9539589881897,None,1178.9189206123353,1180.953400850296,Der Bus fährt jede Stunde.,fährt,1180.3033725738526,1182.2201519012451,1182.6036026000977,None,1195.5041396141053,None,1196.9208838939667,None,./data/Subject_05/Session_03/Exp_data/2020_Aug_19_1217/rec_QA_run_03_block_001_trial_005.wav,05,03,Norwegian,B1,True,False,True,False,False,True,True,True,True,True,True,True,No,3,No,No,No,No,2020_Aug_19_1217,nibs_stage_1,3.2.3,59.99199020516518,
3,0,3,0,1,0,1,0,6,0,6,0,,,,,,,,,,,,,,,,,,,,,,,,,Listen to the question and speak out your answer!,1199.9883618354797,None,1199.9701055049898,1201.9878499507904,"Ich glaube nicht, dass es regnen wird, aber ich werde für alle Fälle einen Schirm mitnehmen.",glaube,1201.3718084812165,1206.521411895752,1206.9047595977784,1207.9215049743652,1216.5719565868378,None,1217.9887228012085,None,./data/Subject_05/Session_03/Exp_data/2020_Aug_19_1217/rec_QA_run_03_block_001_trial_006.wav,05,03,Norwegian,B1,True,False,True,False,False,True,True,True,True,True,True,True,No,3,No,No,No,No,2020_Aug_19_1217,nibs_stage_1,3.2.3,59.99199020516518,
3,0,3,0,1,0,1,0,7,0,7,0,,,,,,,,,,,,,,,,,,,,,,,,,Listen to the question and speak out your answer!,1221.0230967998505,None,1221.004575586319,1223.0224578380585,Fabienne ist Ärztin und arbeitet im Krankenhaus.,arbeitet,1222.4055785655976,1225.6890938282013,1226.0724236488343,None,1237.6063584804535,1238.6231088638306,1239.0230829715729,None,./data/Subject_05/Session_03/Exp_data/2020_Aug_19_1217/rec_QA_run_03_block_001_trial_007.wav,05,03,Norwegian,B1,True,False,True,False,False,True,True,True,True,True,True,True,No,3,No,No,No,No,2020_Aug_19_1217,nibs_stage_1,3.2.3,59.99199020516518,
3,0,3,0,1,0,1,0,8,0,8,0,,,,,,,,,,,,,,,,,,,,,,,,,Listen to the question and speak out your answer!,1242.090471982956,None,1242.0556730270387,1244.0900568962097,Zu Beginn der Konferenz wird der Präsident eine Rede halten.,halten,1243.4733736038208,None,1247.5735535144806,None,1258.640922498703,None,1260.0575568675995,None,./data/Subject_05/Session_03/Exp_data/2020_Aug_19_1217/rec_QA_run_03_block_001_trial_008.wav,05,03,Norwegian,B1,True,False,True,False,False,True,True,True,True,True,True,True,No,3,No,No,No,No,2020_Aug_19_1217,nibs_stage_1,3.2.3,59.99199020516518,
3,0,3,0,1,0,1,0,9,0,9,0,,,,,,,,,,,,,,,,,,,,,,,,,Listen to the question and speak out your answer!,1263.1250219345093,None,1263.090085887909,1265.1245079040527,Mein älterer Bruder mag Rock spielen und hören.,hören,1264.474451494217,None,1267.8079485416413,1268.824714899063,1279.6752435684205,None,1281.0918939113617,None,./data/Subject_05/Session_03/Exp_data/2020_Aug_19_1217/rec_QA_run_03_block_001_trial_009.wav,05,03,Norwegian,B1,True,False,True,False,False,True,True,True,True,True,True,True,No,3,No,No,No,No,2020_Aug_19_1217,nibs_stage_1,3.2.3,59.99199020516518,
3,0,3,0,1,0,1,0,10,0,10,0,,,,,,,,,,,,,,,,,,,,,,,,,Listen to the question and speak out your answer!,1284.176127910614,None,1284.141197538376,1286.175973892212,Ich muss den Anzug vor der Geschäftsreise in den Koffer einpacken.,einpacken,1285.5256516456604,None,1289.6590945243836,1290.6760239601135,1300.726341676712,None,1302.1431398391724,None,./data/Subject_05/Session_03/Exp_data/2020_Aug_19_1217/rec_QA_run_03_block_001_trial_010.wav,05,03,Norwegian,B1,True,False,True,False,False,True,True,True,True,True,True,True,No,3,No,No,No,No,2020_Aug_19_1217,nibs_stage_1,3.2.3,59.99199020516518,
3,0,3,0,1,0,1,0,11,0,11,0,,,,,,,,,,,,,,,,,,,,,,,,,Listen to the question and speak out your answer!,1305.210543870926,None,1305.1922837257387,1307.210028886795,Die schwarze Wolken werden Regen bringen.,bringen,1306.5933556079865,None,1309.3601185798645,None,1321.7941145420075,None,1323.2108619213104,None,./data/Subject_05/Session_03/Exp_data/2020_Aug_19_1217/rec_QA_run_03_block_001_trial_011.wav,05,03,Norwegian,B1,True,False,True,False,False,True,True,True,True,True,True,True,No,3,No,No,No,No,2020_Aug_19_1217,nibs_stage_1,3.2.3,59.99199020516518,
3,0,3,0,1,0,1,0,12,0,12,0,,,,,,,,,,,,,,,,,,,,,,,,,Listen to the question and speak out your answer!,1326.2616238594055,None,1326.2267397403718,1328.2611157894135,"Dieses Zelt wurde für extreme Wetterlagen, z.B. Sturm, Schneesturm, gebaut.",gebaut,1327.6116225242615,1333.0613777637482,1333.4447276115418,None,1342.811882686615,None,1344.2286307811737,None,./data/Subject_05/Session_03/Exp_data/2020_Aug_19_1217/rec_QA_run_03_block_001_trial_012.wav,05,03,Norwegian,B1,True,False,True,False,False,True,True,True,True,True,True,True,No,3,No,No,No,No,2020_Aug_19_1217,nibs_stage_1,3.2.3,59.99199020516518,
3,0,3,0,1,0,1,0,13,0,13,0,,,,,,,,,,,,,,,,,,,,,,,,,Listen to the question and speak out your answer!,1347.2962448596954,None,1347.2777546405794,1349.2955589294434,Ich male sehr gerne Ölbilder.,male,1348.6788405895234,None,1351.1456524848938,None,1363.8797244548798,None,1365.2964007854462,None,./data/Subject_05/Session_03/Exp_data/2020_Aug_19_1217/rec_QA_run_03_block_001_trial_013.wav,05,03,Norwegian,B1,True,False,True,False,False,True,True,True,True,True,True,True,No,3,No,No,No,No,2020_Aug_19_1217,nibs_stage_1,3.2.3,59.99199020516518,
3,0,3,0,1,0,1,0,14,0,14,0,,,,,,,,,,,,,,,,,,,,,,,,,Listen to the question and speak out your answer!,1368.3642208576202,None,1368.3455995082857,1370.3633518218994,Er ist ein Experte für Computer und kennt alle technischen Details.,kennt,1369.746624660492,1373.8636288642883,1374.2468595027924,None,1384.9474236488343,None,1386.364177942276,None,./data/Subject_05/Session_03/Exp_data/2020_Aug_19_1217/rec_QA_run_03_block_001_trial_014.wav,05,03,Norwegian,B1,True,False,True,False,False,True,True,True,True,True,True,True,No,3,No,No,No,No,2020_Aug_19_1217,nibs_stage_1,3.2.3,59.99199020516518,
3,0,3,0,1,0,1,0,15,0,15,0,,,,,,,,,,,,,,,,,,,,,,,,,Listen to the question and speak out your answer!,1389.431650876999,None,1389.4133695125581,1391.4311017990112,Nur mit der Fahrkarte kann man einsteigen.,einsteigen,1390.8143996715546,None,1393.6478795528412,None,1406.0151905536652,None,1407.431941986084,None,./data/Subject_05/Session_03/Exp_data/2020_Aug_19_1217/rec_QA_run_03_block_001_trial_015.wav,05,03,Norwegian,B1,True,False,True,False,False,True,True,True,True,True,True,True,No,3,No,No,No,No,2020_Aug_19_1217,nibs_stage_1,3.2.3,59.99199020516518,
3,0,3,0,1,0,1,0,16,0,16,0,,,,,,,,,,,,,,,,,,,,,,,,,Listen to the question and speak out your answer!,1410.498774766922,None,1410.4644659996034,1412.4991238117218,An Regentagen benutzen die Leute einen Regenschirm.,benutzen,1411.882241678238,1415.2324438095093,1415.5823485374451,None,1427.0829724788666,None,1428.4996869564056,None,./data/Subject_05/Session_03/Exp_data/2020_Aug_19_1217/rec_QA_run_03_block_001_trial_016.wav,05,03,Norwegian,B1,True,False,True,False,False,True,True,True,True,True,True,True,No,3,No,No,No,No,2020_Aug_19_1217,nibs_stage_1,3.2.3,59.99199020516518,
3,0,3,0,1,0,1,0,17,0,17,0,,,,,,,,,,,,,,,,,,,,,,,,,Listen to the question and speak out your answer!,1431.5332918167114,None,1431.4989060401917,1433.5333058834076,Charles Darwin hat die Natur erforscht.,erforscht,1432.9165925502778,None,1435.683458518982,None,1448.117409658432,None,1449.5341608524323,None,./data/Subject_05/Session_03/Exp_data/2020_Aug_19_1217/rec_QA_run_03_block_001_trial_017.wav,05,03,Norwegian,B1,True,False,True,False,False,True,True,True,True,True,True,True,No,3,No,No,No,No,2020_Aug_19_1217,nibs_stage_1,3.2.3,59.99199020516518,
3,0,3,0,1,0,1,0,18,0,18,0,,,,,,,,,,,,,,,,,,,,,,,,,Listen to the question and speak out your answer!,1452.5515098571777,None,1452.516712141037,1454.5510878562927,Der Prüfer hat die Erfüllung gesetzlicher Auflagen durch das Unternehmen kontrolliert.,kontrolliert,1453.9343904972077,None,1459.1012985229493,None,1469.101826620102,1470.1185748577118,1470.5185718536377,None,./data/Subject_05/Session_03/Exp_data/2020_Aug_19_1217/rec_QA_run_03_block_001_trial_018.wav,05,03,Norwegian,B1,True,False,True,False,False,True,True,True,True,True,True,True,No,3,No,No,No,No,2020_Aug_19_1217,nibs_stage_1,3.2.3,59.99199020516518,
3,0,3,0,1,0,1,0,19,0,19,0,,,,,,,,,,,,,,,,,,,,,,,,,Listen to the question and speak out your answer!,1473.5687499046326,None,1473.5344502449036,1475.5688588619232,Zuhause erzählt er seiner kleinen Schwester davon.,erzählt,1474.9188024520874,1478.1023178100586,1478.5189945220948,None,1490.1196045398713,None,1491.5363459587097,None,./data/Subject_05/Session_03/Exp_data/2020_Aug_19_1217/rec_QA_run_03_block_001_trial_019.wav,05,03,Norwegian,B1,True,False,True,False,False,True,True,True,True,True,True,True,No,3,No,No,No,No,2020_Aug_19_1217,nibs_stage_1,3.2.3,59.99199020516518,
3,0,3,0,1,0,1,0,20,0,20,0,,,,,,,,,,,,,,,,,,,,,,,,,Listen to the question and speak out your answer!,1494.6037797927856,None,1494.5689159870149,1496.6031877994537,"Wenn der Vulkan aktiv ist, wird Lava herausfließen.",herausfließen,1495.9865705490113,1499.6369278430939,1500.0201065063477,None,1511.1873526096344,None,1512.6043019294739,None,./data/Subject_05/Session_03/Exp_data/2020_Aug_19_1217/rec_QA_run_03_block_001_trial_020.wav,05,03,Norwegian,B1,True,False,True,False,False,True,True,True,True,True,True,True,No,3,No,No,No,No,2020_Aug_19_1217,nibs_stage_1,3.2.3,59.99199020516518,
3,0,3,0,1,0,1,0,21,0,21,0,,,,,,,,,,,,,,,,,,,,,,,,,Listen to the question and speak out your answer!,1515.6211287975311,None,1515.586774301529,1517.6210448741913,"In den Zeitungen , im Radio und im Fernsehen wird regelmäßig über Sport berichtet.",berichtet,1517.004385662079,None,1522.6046216011048,1523.621349811554,1532.1884655475617,None,1533.6052107810974,None,./data/Subject_05/Session_03/Exp_data/2020_Aug_19_1217/rec_QA_run_03_block_001_trial_021.wav,05,03,Norwegian,B1,True,False,True,False,False,True,True,True,True,True,True,True,No,3,No,No,No,No,2020_Aug_19_1217,nibs_stage_1,3.2.3,59.99199020516518,
3,0,3,0,1,0,1,0,22,0,22,0,,,,,,,,,,,,,,,,,,,,,,,,,Listen to the question and speak out your answer!,1536.6726698875427,None,1536.6378098964692,1538.6720478534698,"Ich hoffe, dass ich und meine Tante gute Freunde für immer bleiben können.",hoffe,1538.0554265499115,None,1542.5223326206208,None,1553.2562436580658,None,1554.6731259822845,None,./data/Subject_05/Session_03/Exp_data/2020_Aug_19_1217/rec_QA_run_03_block_001_trial_022.wav,05,03,Norwegian,B1,True,False,True,False,False,True,True,True,True,True,True,True,No,3,No,No,No,No,2020_Aug_19_1217,nibs_stage_1,3.2.3,59.99199020516518,
3,0,3,0,1,0,1,0,23,0,23,0,,,,,,,,,,,,,,,,,,,,,,,,,Listen to the question and speak out your answer!,1557.7231397628784,None,1557.6888595581056,1559.72354388237,Der ganze Kurs bestand die Prüfung.,bestand,1559.1065246582032,1561.3900048732758,1561.739933681488,None,1574.3075565814972,None,1575.7240419387817,None,./data/Subject_05/Session_03/Exp_data/2020_Aug_19_1217/rec_QA_run_03_block_001_trial_023.wav,05,03,Norwegian,B1,True,False,True,False,False,True,True,True,True,True,True,True,No,3,No,No,No,No,2020_Aug_19_1217,nibs_stage_1,3.2.3,59.99199020516518,
3,0,3,0,1,0,1,0,24,0,24,0,,,,,,,,,,,,,,,,,,,,,,,,,Listen to the question and speak out your answer!,1578.757943868637,None,1578.7398775577547,1580.7577967643738,"Die Fische leben in Flüssen , Seen und Meeren.",leben,1580.1075934886933,None,1583.774622631073,None,1595.3083295345307,1596.3251719474792,1596.7252218723297,None,./data/Subject_05/Session_03/Exp_data/2020_Aug_19_1217/rec_QA_run_03_block_001_trial_024.wav,05,03,Norwegian,B1,True,False,True,False,False,True,True,True,True,True,True,True,No,3,No,No,No,No,2020_Aug_19_1217,nibs_stage_1,3.2.3,59.99199020516518,
