pre_trial.thisRepN,pre_trial.thisTrialN,pre_trial.thisN,pre_trial.thisIndex,run.thisRepN,run.thisTrialN,run.thisN,run.thisIndex,QA_block.thisRepN,QA_block.thisTrialN,QA_block.thisN,QA_block.thisIndex,QA_trial.thisRepN,QA_trial.thisTrialN,QA_trial.thisN,QA_trial.thisIndex,instruction_text.started,instruction_text.stopped,instruction_cont.started,instruction_cont.stopped,Pause_cont.started,Pause_cont.stopped,QA_rec_text.started,QA_rec_text.stopped,QA_rec_beep_hint.started,QA_rec_beep_hint.stopped,QA_rec_question.started,QA_rec_question.stopped,QA_rec_beep_start.started,QA_rec_beep_start.stopped,QA_rec_beep_end.started,QA_rec_beep_end.stopped,QA_rec_break.started,QA_rec_break.stopped,filename,participant,session,First language,German level,date,expName,psychopyVersion,frameRate,
,,,,0,0,0,0,0,0,0,0,0,0,0,0,7.850656032562256,None,12.835926055908203,None,13.48609209060669,None,17.0683810710907,42.07088804244995,17.068581485748293,None,17.65277283191681,None,32.05344598293304,None,41.054012942314145,42.05409002304077,41.053998947143555,None,./data/Subject_01/Session_01/Exp_data/rec_QA_run_00_block_000_trial_000.wav,01,01,,,2020_Feb_27_2216,nibs_stage_1,3.2.3,60.04747329269375,
,,,,0,0,0,0,0,0,0,0,1,0,1,0,,,,,,,46.269968032836914,71.2721619606018,46.25398757457733,None,46.85442082881927,None,61.25513594150543,62.2550311088562,70.25563685894012,71.25552010536194,70.2554259300232,46.269968032836914,./data/Subject_01/Session_01/Exp_data/rec_QA_run_00_block_000_trial_001.wav,01,01,,,2020_Feb_27_2216,nibs_stage_1,3.2.3,60.04747329269375,
,,,,0,0,0,0,0,0,0,0,2,0,2,0,,,,,,,75.48997807502747,100.49104595184326,75.47144646644593,None,76.05570690631866,None,90.45654480457306,None,99.45707385540008,100.45698308944702,99.45708799362183,75.48997807502747,./data/Subject_01/Session_01/Exp_data/rec_QA_run_00_block_000_trial_002.wav,01,01,,,2020_Feb_27_2216,nibs_stage_1,3.2.3,60.04747329269375,
,,,,0,0,0,0,0,0,0,0,3,0,3,0,,,,,,,104.67358088493347,129.67428708076477,104.65693142414092,None,105.25745599269867,None,119.65747277736664,None,128.6584588766098,129.65764904022217,128.65845608711243,104.67358088493347,./data/Subject_01/Session_01/Exp_data/rec_QA_run_00_block_000_trial_003.wav,01,01,,,2020_Feb_27_2216,nibs_stage_1,3.2.3,60.04747329269375,
,,,,0,0,0,0,0,0,0,0,4,0,4,0,,,,,,,133.90059089660645,158.9126420021057,133.87504739761354,None,134.4587578058243,None,148.859671998024,149.85977411270142,157.85992376804353,158.86032390594482,157.86016702651978,133.90059089660645,./data/Subject_01/Session_01/Exp_data/rec_QA_run_00_block_000_trial_004.wav,01,01,,,2020_Feb_27_2216,nibs_stage_1,3.2.3,60.04747329269375,
,,,,0,0,0,0,0,0,0,0,5,0,5,0,,,,,,,163.0757761001587,188.0776379108429,163.06009747982026,None,163.66024582386018,None,178.0610229253769,179.06049299240112,187.06148092746736,188.06155800819397,187.06176900863647,163.0757761001587,./data/Subject_01/Session_01/Exp_data/rec_QA_run_00_block_000_trial_005.wav,01,01,,,2020_Feb_27_2216,nibs_stage_1,3.2.3,60.04747329269375,
,,,,0,0,0,0,0,0,0,0,6,0,6,0,,,,,,,192.27818202972412,217.27975392341614,192.26148941516877,None,192.8613077878952,None,207.2625278711319,208.26263093948364,216.2629739522934,217.26302194595337,216.26301193237305,192.27818202972412,./data/Subject_01/Session_01/Exp_data/rec_QA_run_00_block_000_trial_006.wav,01,01,,,2020_Feb_27_2216,nibs_stage_1,3.2.3,60.04747329269375,
,,,,0,0,0,0,0,0,0,0,7,0,7,0,,,,,,,221.47892689704895,246.48123598098755,221.46296646595002,None,222.06328885555268,None,236.46427576541902,None,245.46454088687898,None,245.4645130634308,221.47892689704895,./data/Subject_01/Session_01/Exp_data/rec_QA_run_00_block_000_trial_007.wav,01,01,,,2020_Feb_27_2216,nibs_stage_1,3.2.3,60.04747329269375,
,,,,0,0,0,0,0,0,0,0,8,0,8,0,,,,,,,250.6807370185852,275.6829640865326,250.66450645923615,None,251.26413576602937,None,265.6655639886856,None,274.66601197719575,None,274.6659948825836,250.6807370185852,./data/Subject_01/Session_01/Exp_data/rec_QA_run_00_block_000_trial_008.wav,01,01,,,2020_Feb_27_2216,nibs_stage_1,3.2.3,60.04747329269375,
,,,,0,0,0,0,0,0,0,0,9,0,9,0,,,,,,,279.8818008899689,304.88424611091614,279.86601641178135,None,280.46627299785615,None,294.8664108991623,None,303.8676728487015,None,303.8675470352173,279.8818008899689,./data/Subject_01/Session_01/Exp_data/rec_QA_run_00_block_000_trial_009.wav,01,01,,,2020_Feb_27_2216,nibs_stage_1,3.2.3,60.04747329269375,
,,,,0,0,0,0,0,0,0,0,10,0,10,0,,,,,,,309.092276096344,334.102637052536,309.06772544384006,None,309.6679269552231,None,324.0677937746048,325.06861209869385,333.06938688755037,None,333.0692880153656,309.092276096344,./data/Subject_01/Session_01/Exp_data/rec_QA_run_00_block_000_trial_010.wav,01,01,,,2020_Feb_27_2216,nibs_stage_1,3.2.3,60.04747329269375,
,,,,0,0,0,0,0,0,0,0,11,0,11,0,,,,,,,338.2848129272461,363.28753995895386,338.2684004545212,None,338.869316983223,None,353.2700578451157,None,362.2707189798355,None,362.2707030773163,338.2848129272461,./data/Subject_01/Session_01/Exp_data/rec_QA_run_00_block_000_trial_011.wav,01,01,,,2020_Feb_27_2216,nibs_stage_1,3.2.3,60.04747329269375,
,,,,0,0,0,0,0,0,0,0,12,0,12,0,,,,,,,367.4955930709839,392.5057671070099,367.47073652744297,None,368.07092897892,None,382.47174899578096,383.4717071056366,391.4720439195633,None,391.4720640182495,367.4955930709839,./data/Subject_01/Session_01/Exp_data/rec_QA_run_00_block_000_trial_012.wav,01,01,,,2020_Feb_27_2216,nibs_stage_1,3.2.3,60.04747329269375,
,,,,0,0,0,0,0,0,0,0,13,0,13,0,,,,,,,396.6876609325409,421.6905400753021,396.67231347560886,None,397.2724999666214,None,411.673214840889,None,420.67367594242097,421.67383003234863,420.67368507385254,396.6876609325409,./data/Subject_01/Session_01/Exp_data/rec_QA_run_00_block_000_trial_013.wav,01,01,,,2020_Feb_27_2216,nibs_stage_1,3.2.3,60.04747329269375,
,,,,0,0,0,0,0,0,0,0,14,0,14,0,,,,,,,425.89029908180237,450.89213490486145,425.8902024745941,None,426.47319095134736,None,440.8745898485184,None,449.8752388238907,450.87518095970154,449.87443709373474,425.89029908180237,./data/Subject_01/Session_01/Exp_data/rec_QA_run_00_block_000_trial_014.wav,01,01,,,2020_Feb_27_2216,nibs_stage_1,3.2.3,60.04747329269375,
,,,,0,0,0,0,0,0,0,0,15,0,15,0,,,,,,,455.1062469482422,480.11000299453735,455.09188241958617,None,455.6743809461594,None,470.0762509584427,None,479.07679479122163,None,479.0768620967865,455.1062469482422,./data/Subject_01/Session_01/Exp_data/rec_QA_run_00_block_000_trial_015.wav,01,01,,,2020_Feb_27_2216,nibs_stage_1,3.2.3,60.04747329269375,
,,,,0,0,0,0,0,0,0,0,16,0,16,0,,,,,,,484.3044500350952,509.3122589588165,484.276596570015,None,484.87696783542634,None,499.27777378559114,None,508.278199839592,509.27828907966614,508.2782039642334,484.3044500350952,./data/Subject_01/Session_01/Exp_data/rec_QA_run_00_block_000_trial_016.wav,01,01,,,2020_Feb_27_2216,nibs_stage_1,3.2.3,60.04747329269375,
,,,,0,0,0,0,0,0,0,0,17,0,17,0,,,,,,,513.4945120811462,538.4956591129303,513.4782023668289,None,514.0776888608932,None,528.4792558431625,None,537.4799029111862,None,537.4789578914642,513.4945120811462,./data/Subject_01/Session_01/Exp_data/rec_QA_run_00_block_000_trial_017.wav,01,01,,,2020_Feb_27_2216,nibs_stage_1,3.2.3,60.04747329269375,
,,,,0,0,0,0,0,0,0,0,18,0,18,0,,,,,,,542.7431271076202,567.7628960609436,542.7119874477386,None,543.311705994606,None,557.7130429029464,None,566.7136987924575,None,566.7302360534668,542.7431271076202,./data/Subject_01/Session_01/Exp_data/rec_QA_run_00_block_000_trial_018.wav,01,01,,,2020_Feb_27_2216,nibs_stage_1,3.2.3,60.04747329269375,
,,,,0,0,0,0,0,0,0,0,19,0,19,0,,,,,,,571.9643170833588,596.9977750778198,571.947923374176,None,572.5464407682418,None,586.9304458379745,None,595.9490479707717,None,595.9645519256592,571.9643170833588,./data/Subject_01/Session_01/Exp_data/rec_QA_run_00_block_000_trial_019.wav,01,01,,,2020_Feb_27_2216,nibs_stage_1,3.2.3,60.04747329269375,
,,,,0,0,0,0,0,0,0,0,,,,,,,,,601.2374470233917,None,,,,,,,,,,,,,,01,01,,,2020_Feb_27_2216,nibs_stage_1,3.2.3,60.04747329269375,
