run.thisRepN,run.thisTrialN,run.thisN,run.thisIndex,QA_block.thisRepN,QA_block.thisTrialN,QA_block.thisN,QA_block.thisIndex,QA_trial.thisRepN,QA_trial.thisTrialN,QA_trial.thisN,QA_trial.thisIndex,fade_in_text.text,fade_in_text.started,fade_in_text.stopped,RS_intro_title.started,RS_intro_title.stopped,RS_intro_text.text,RS_intro_text.started,RS_intro_text.stopped,RS_intro_audio.started,RS_intro_audio.stopped,RS_rec_text.text,RS_rec_text.started,RS_rec_text.stopped,Pause_cont.started,Pause_cont.stopped,QA_intro_title.started,QA_intro_title.stopped,QA_intro_text.text,QA_intro_text.started,QA_intro_text.stopped,QA_intro_audio.started,QA_intro_audio.stopped,QA_intro_cont.started,QA_intro_cont.stopped,QA_rec_text.text,QA_rec_text.started,QA_rec_text.stopped,QA_rec_beep_hint.started,QA_rec_beep_hint.stopped,QA_rec_question.sen_text,QA_rec_question.cen_text,QA_rec_question.started,QA_rec_question.stopped,QA_rec_beep_start.started,QA_rec_beep_start.stopped,QA_rec_beep_end.started,QA_rec_beep_end.stopped,QA_rec_break.started,QA_rec_break.stopped,filename,participant,session,First language,German level,Full_screen,Instruction,Intro,Artifact,Cali_pre,Fade_in_out,Artifact_within,Resting_State,QA,Pause,Cali_post,End,Breakpoint_Cali_pre_trial,Breakpoint_Run,Breakpoint_RS_block,Breakpoint_QA_block,Breakpoint_QA_trial,Breakpoint_Cali_post_trial,date,expName,psychopyVersion,frameRate,
1,0,1,0,0,0,0,0,0,0,0,0,Please remain seated until further instruction via the earphone.,58.34660196304321,None,268.790874004364,None," - Task: Keep seated and relaxed with either      
             opening or closing eyes                  
 - Beep sound with decreasing pitch: Block finish 
",268.790874004364,None,268.79070749282835,None,"Please keep relaxed and close your eyes.
",291.8088719844818,471.81814312934875,475.2016580104828,None,491.73645401000977,531.7546269893646," - Task: Listen to the question& Speak out answer 
 - Melodious beep sound: Trial start              
 - Silent sound (blank): censored word            
 - Beep sound with increasing pitch: Rec. start   
 - Beep sound with decreasing pitch: Rec. finish  
",491.73645401000977,531.7546269893646,491.7188958644867,None,531.1212630271912,None,Listen to the question and speak out your answer!,535.6550979614258,None,535.6379736423493,537.63849401474,"Im Kaffeehaus sitzen und Zeitung lesen, das gefällt den Österreichern.",gefällt,537.022058916092,None,541.8053960323334,None,552.2225849151612,553.2226581573486,553.622789144516,554.6227130889893,./data/Subject_10/Session_03/Exp_data/2020_Aug_14_1125/rec_QA_run_01_block_000_trial_000.wav,10,03,English,A2,True,False,True,False,False,True,True,True,True,True,True,True,No,1,No,No,No,No,2020_Aug_14_1125,nibs_stage_1,3.2.3,60.02616115154863,
1,0,1,0,0,0,0,0,1,0,1,0,,,,,,,,,,,,,,,,,,,,,,,,,Listen to the question and speak out your answer!,556.6896851062775,None,556.6726643085481,558.6726570129395,"Wir schafften es, das Projekt nach Plan abzuschließen.",schafften,558.0726620674134,561.5060820579529,561.9061040401459,None,573.2734789371491,None,574.6902229785919,None,./data/Subject_10/Session_03/Exp_data/2020_Aug_14_1125/rec_QA_run_01_block_000_trial_001.wav,10,03,English,A2,True,False,True,False,False,True,True,True,True,True,True,True,No,1,No,No,No,No,2020_Aug_14_1125,nibs_stage_1,3.2.3,60.02616115154863,
1,0,1,0,0,0,0,0,2,0,2,0,,,,,,,,,,,,,,,,,,,,,,,,,Listen to the question and speak out your answer!,577.7584149837494,None,577.7401693820954,579.7571671009064,Wir freuen uns sehr über Ihren Besuch.,freuen,579.1404480457306,581.5572781562805,581.9072598934174,None,594.3245448589325,None,595.7413470745087,None,./data/Subject_10/Session_03/Exp_data/2020_Aug_14_1125/rec_QA_run_01_block_000_trial_002.wav,10,03,English,A2,True,False,True,False,False,True,True,True,True,True,True,True,No,1,No,No,No,No,2020_Aug_14_1125,nibs_stage_1,3.2.3,60.02616115154863,
1,0,1,0,0,0,0,0,3,0,3,0,,,,,,,,,,,,,,,,,,,,,,,,,Listen to the question and speak out your answer!,598.7917261123657,None,598.774627351761,600.791589975357,Er kann mit den Händen an einem Baum hängen.,hängen,600.1748849868775,None,602.9416968345643,None,615.3756730079651,None,616.7924420833588,None,./data/Subject_10/Session_03/Exp_data/2020_Aug_14_1125/rec_QA_run_01_block_000_trial_003.wav,10,03,English,A2,True,False,True,False,False,True,True,True,True,True,True,True,No,1,No,No,No,No,2020_Aug_14_1125,nibs_stage_1,3.2.3,60.02616115154863,
1,0,1,0,0,0,0,0,4,0,4,0,,,,,,,,,,,,,,,,,,,,,,,,,Listen to the question and speak out your answer!,619.859521150589,None,619.8424082756043,621.8593511581421,Ich bin von New York nach München geflogen.,geflogen,621.2426578521729,623.7594840526581,624.1428160190583,None,636.4434329986573,None,637.8603501319885,None,./data/Subject_10/Session_03/Exp_data/2020_Aug_14_1125/rec_QA_run_01_block_000_trial_004.wav,10,03,English,A2,True,False,True,False,False,True,True,True,True,True,True,True,No,1,No,No,No,No,2020_Aug_14_1125,nibs_stage_1,3.2.3,60.02616115154863,
1,0,1,0,0,0,0,0,5,0,5,0,,,,,,,,,,,,,,,,,,,,,,,,,Listen to the question and speak out your answer!,640.9273359775543,None,640.9101592063904,642.927139043808,Ich musste für meinen Vortrag eine Menge Informationen sammeln.,sammeln,642.3104300022126,None,646.5106470108033,647.5273761749268,657.5112289905549,658.5280640125275,658.927980184555,None,./data/Subject_10/Session_03/Exp_data/2020_Aug_14_1125/rec_QA_run_01_block_000_trial_005.wav,10,03,English,A2,True,False,True,False,False,True,True,True,True,True,True,True,No,1,No,No,No,No,2020_Aug_14_1125,nibs_stage_1,3.2.3,60.02616115154863,
1,0,1,0,0,0,0,0,6,0,6,0,,,,,,,,,,,,,,,,,,,,,,,,,Listen to the question and speak out your answer!,661.995756149292,None,661.9779492378235,663.9950830936432,"Um eine Kreditkarte zu bewerben, muss man älter als 18 werden. ",bewerben,663.3782138347626,None,667.8451208591462,668.8618521690369,678.578998041153,None,679.9956550598145,None,./data/Subject_10/Session_03/Exp_data/2020_Aug_14_1125/rec_QA_run_01_block_000_trial_006.wav,10,03,English,A2,True,False,True,False,False,True,True,True,True,True,True,True,No,1,No,No,No,No,2020_Aug_14_1125,nibs_stage_1,3.2.3,60.02616115154863,
1,0,1,0,0,0,0,0,7,0,7,0,,,,,,,,,,,,,,,,,,,,,,,,,Listen to the question and speak out your answer!,683.0628740787506,None,683.045716381073,685.0626881122589,"Das Messer ist so stumpf, dass wir nicht mehr brauchen.",brauchen,684.4459988594056,None,687.8795060634613,None,699.6468278884888,700.6635150909424,701.0635390281677,None,./data/Subject_10/Session_03/Exp_data/2020_Aug_14_1125/rec_QA_run_01_block_000_trial_007.wav,10,03,English,A2,True,False,True,False,False,True,True,True,True,True,True,True,No,1,No,No,No,No,2020_Aug_14_1125,nibs_stage_1,3.2.3,60.02616115154863,
1,0,1,0,0,0,0,0,8,0,8,0,,,,,,,,,,,,,,,,,,,,,,,,,Listen to the question and speak out your answer!,704.1139340400696,None,704.0801592826843,706.1138010025024,"Ich möchte einen weiteren Test durchführen, um die Ergebnisse zu prüfen.",prüfen,705.4637519836426,709.8139901161194,710.2306789875031,None,720.6647488594056,721.6812760829926,722.0815811157227,None,./data/Subject_10/Session_03/Exp_data/2020_Aug_14_1125/rec_QA_run_01_block_000_trial_008.wav,10,03,English,A2,True,False,True,False,False,True,True,True,True,True,True,True,No,1,No,No,No,No,2020_Aug_14_1125,nibs_stage_1,3.2.3,60.02616115154863,
1,0,1,0,0,0,0,0,9,0,9,0,,,,,,,,,,,,,,,,,,,,,,,,,Listen to the question and speak out your answer!,725.1487171649933,None,725.1144963741303,727.1482450962067,Der Vogel flog zurück zu seinem Nest.,flog,726.5315448760987,None,729.3650359630585,730.381744146347,741.732350063324,None,743.1490910053253,None,./data/Subject_10/Session_03/Exp_data/2020_Aug_14_1125/rec_QA_run_01_block_000_trial_009.wav,10,03,English,A2,True,False,True,False,False,True,True,True,True,True,True,True,No,1,No,No,No,No,2020_Aug_14_1125,nibs_stage_1,3.2.3,60.02616115154863,
1,0,1,0,0,0,0,0,10,0,10,0,,,,,,,,,,,,,,,,,,,,,,,,,Listen to the question and speak out your answer!,746.165999174118,None,746.1325234889985,748.16601395607,Der Tourist fragte nach dem Weg zum Opernhaus.,fragte,747.5159868717194,None,751.1161629676819,752.1328930854797,762.7168979167939,763.7335121631622,764.1335361003876,None,./data/Subject_10/Session_03/Exp_data/2020_Aug_14_1125/rec_QA_run_01_block_000_trial_010.wav,10,03,English,A2,True,False,True,False,False,True,True,True,True,True,True,True,No,1,No,No,No,No,2020_Aug_14_1125,nibs_stage_1,3.2.3,60.02616115154863,
1,0,1,0,0,0,0,0,11,0,11,0,,,,,,,,,,,,,,,,,,,,,,,,,Listen to the question and speak out your answer!,767.200464963913,None,767.1668673992158,769.2004790306091,"Wenn eine Erkältung hat, kann mann niesen oder husten.",husten,768.5504269123078,771.8339569568634,772.2506439208985,None,783.7679030418396,None,785.1846461296082,None,./data/Subject_10/Session_03/Exp_data/2020_Aug_14_1125/rec_QA_run_01_block_000_trial_011.wav,10,03,English,A2,True,False,True,False,False,True,True,True,True,True,True,True,No,1,No,No,No,No,2020_Aug_14_1125,nibs_stage_1,3.2.3,60.02616115154863,
1,0,1,0,0,0,0,0,12,0,12,0,,,,,,,,,,,,,,,,,,,,,,,,,Listen to the question and speak out your answer!,788.2516281604767,None,788.2345682144165,790.2515780925751,Mit dem neuen System können wir Dokumente effizienter organisieren.,organisieren,789.6349279403687,793.785197019577,794.1684529304505,None,804.835990858078,None,806.2524950504303,None,./data/Subject_10/Session_03/Exp_data/2020_Aug_14_1125/rec_QA_run_01_block_000_trial_012.wav,10,03,English,A2,True,False,True,False,False,True,True,True,True,True,True,True,No,1,No,No,No,No,2020_Aug_14_1125,nibs_stage_1,3.2.3,60.02616115154863,
1,0,1,0,0,0,0,0,13,0,13,0,,,,,,,,,,,,,,,,,,,,,,,,,Listen to the question and speak out your answer!,809.3032410144806,None,809.2689703464508,811.3026959896088,Der ganze Kurs bestand die Prüfung.,bestand,810.6526569843293,None,813.3194648742676,814.3362190723419,825.8534779071808,None,827.2704041004181,None,./data/Subject_10/Session_03/Exp_data/2020_Aug_14_1125/rec_QA_run_01_block_000_trial_013.wav,10,03,English,A2,True,False,True,False,False,True,True,True,True,True,True,True,No,1,No,No,No,No,2020_Aug_14_1125,nibs_stage_1,3.2.3,60.02616115154863,
1,0,1,0,0,0,0,0,14,0,14,0,,,,,,,,,,,,,,,,,,,,,,,,,Listen to the question and speak out your answer!,830.3371391296387,None,830.3035134315492,832.3371381759644,Ich konnte die Lärmquelle finden.,finden,831.72046084404,None,834.1207179546357,None,846.9214019298554,None,848.3380279541016,None,./data/Subject_10/Session_03/Exp_data/2020_Aug_14_1125/rec_QA_run_01_block_000_trial_014.wav,10,03,English,A2,True,False,True,False,False,True,True,True,True,True,True,True,No,1,No,No,No,No,2020_Aug_14_1125,nibs_stage_1,3.2.3,60.02616115154863,
1,0,1,0,0,0,0,0,15,0,15,0,,,,,,,,,,,,,,,,,,,,,,,,,Listen to the question and speak out your answer!,851.3888039588928,None,851.3546153068543,853.3882710933685,"Die ausgehende Post muss noch eintragen werden, da sie strenge Datenschutzrichtlinien haben.",eintragen,852.7382089614869,858.3552010059357,858.7385298728943,859.7552659511566,867.9390620708466,868.9557681083679,869.3557770252228,None,./data/Subject_10/Session_03/Exp_data/2020_Aug_14_1125/rec_QA_run_01_block_000_trial_015.wav,10,03,English,A2,True,False,True,False,False,True,True,True,True,True,True,True,No,1,No,No,No,No,2020_Aug_14_1125,nibs_stage_1,3.2.3,60.02616115154863,
1,0,1,0,0,0,0,0,16,0,16,0,,,,,,,,,,,,,,,,,,,,,,,,,Listen to the question and speak out your answer!,872.4227161407471,None,872.3890553951264,874.4227020740509,Ich habe meine Schuhe für die Hochzeit geputzt.,geputzt,873.80599899292,None,876.8395039558411,None,889.0068280220032,None,890.4236710071564,None,./data/Subject_10/Session_03/Exp_data/2020_Aug_14_1125/rec_QA_run_01_block_000_trial_016.wav,10,03,English,A2,True,False,True,False,False,True,True,True,True,True,True,True,No,1,No,No,No,No,2020_Aug_14_1125,nibs_stage_1,3.2.3,60.02616115154863,
1,0,1,0,0,0,0,0,17,0,17,0,,,,,,,,,,,,,,,,,,,,,,,,,Listen to the question and speak out your answer!,893.4573490619659,None,893.4235283374787,895.45720911026,Die Verkäuferin beantwortete meine Fragen und konnte mich beraten.,beraten,894.840450000763,None,899.307353925705,None,910.0412890434266,None,911.4579379558563,None,./data/Subject_10/Session_03/Exp_data/2020_Aug_14_1125/rec_QA_run_01_block_000_trial_017.wav,10,03,English,A2,True,False,True,False,False,True,True,True,True,True,True,True,No,1,No,No,No,No,2020_Aug_14_1125,nibs_stage_1,3.2.3,60.02616115154863,
1,0,1,0,0,0,0,0,18,0,18,0,,,,,,,,,,,,,,,,,,,,,,,,,Listen to the question and speak out your answer!,914.4934160709381,None,914.4747901916504,916.4916141033173,Mein Hund hat ein paar Tricks gelernt. ,gelernt,915.8750059127808,917.9589531421661,918.341695022583,None,931.0762650489808,None,932.4926061630249,None,./data/Subject_10/Session_03/Exp_data/2020_Aug_14_1125/rec_QA_run_01_block_000_trial_018.wav,10,03,English,A2,True,False,True,False,False,True,True,True,True,True,True,True,No,1,No,No,No,No,2020_Aug_14_1125,nibs_stage_1,3.2.3,60.02616115154863,
1,0,1,0,0,0,0,0,19,0,19,0,,,,,,,,,,,,,,,,,,,,,,,,,Listen to the question and speak out your answer!,935.5760910511017,None,935.5424092769623,937.576140165329,Howard Carter hat viele Schätze im Grab von Tutanchamun gefunden.,gefunden,936.9259869575501,None,941.32637591362,942.3429691791534,952.1268169403077,None,953.5435891151428,None,./data/Subject_10/Session_03/Exp_data/2020_Aug_14_1125/rec_QA_run_01_block_000_trial_019.wav,10,03,English,A2,True,False,True,False,False,True,True,True,True,True,True,True,No,1,No,No,No,No,2020_Aug_14_1125,nibs_stage_1,3.2.3,60.02616115154863,
1,0,1,0,0,0,0,0,20,0,20,0,,,,,,,,,,,,,,,,,,,,,,,,,Listen to the question and speak out your answer!,956.6276869773865,None,956.5935011863709,958.6271669864655,Sie schulden mir noch Geld von gestern.,schulden,958.0104679584504,960.3272550106049,960.7106408596039,None,973.2112729072571,None,974.6280391216278,None,./data/Subject_10/Session_03/Exp_data/2020_Aug_14_1125/rec_QA_run_01_block_000_trial_020.wav,10,03,English,A2,True,False,True,False,False,True,True,True,True,True,True,True,No,1,No,No,No,No,2020_Aug_14_1125,nibs_stage_1,3.2.3,60.02616115154863,
1,0,1,0,0,0,0,0,21,0,21,0,,,,,,,,,,,,,,,,,,,,,,,,,Listen to the question and speak out your answer!,977.6631491184235,None,977.6446681976319,979.6616170406342,Hans und Tina heirateten am Donnerstag in der Kirche.,heirateten,979.0448920249939,None,983.1118089675904,None,994.245748949051,995.2628509998322,995.6626260280609,None,./data/Subject_10/Session_03/Exp_data/2020_Aug_14_1125/rec_QA_run_01_block_000_trial_021.wav,10,03,English,A2,True,False,True,False,False,True,True,True,True,True,True,True,No,1,No,No,No,No,2020_Aug_14_1125,nibs_stage_1,3.2.3,60.02616115154863,
1,0,1,0,0,0,0,0,22,0,22,0,,,,,,,,,,,,,,,,,,,,,,,,,Listen to the question and speak out your answer!,998.7305221557617,None,998.7128103733063,1000.7293820381165,Er möchte sich für meine Hilfe bedanken.,bedanken,1000.112761926651,1002.4295120239258,1002.8128890514374,None,1015.3135070323945,None,1016.730220079422,None,./data/Subject_10/Session_03/Exp_data/2020_Aug_14_1125/rec_QA_run_01_block_000_trial_022.wav,10,03,English,A2,True,False,True,False,False,True,True,True,True,True,True,True,No,1,No,No,No,No,2020_Aug_14_1125,nibs_stage_1,3.2.3,60.02616115154863,
1,0,1,0,0,0,0,0,23,0,23,0,,,,,,,,,,,,,,,,,,,,,,,,,Listen to the question and speak out your answer!,1019.7987730503082,None,1019.7803121566773,1021.7971661090851,Abends essen wir meistens kalt.,essen,1021.1805879592896,1023.1972479820251,1023.5805780410767,1024.5973060131073,1036.3812808513642,1037.3980450630188,1037.7980329990387,None,./data/Subject_10/Session_03/Exp_data/2020_Aug_14_1125/rec_QA_run_01_block_000_trial_023.wav,10,03,English,A2,True,False,True,False,False,True,True,True,True,True,True,True,No,1,No,No,No,No,2020_Aug_14_1125,nibs_stage_1,3.2.3,60.02616115154863,
1,0,1,0,0,0,0,0,24,0,24,0,,,,,,,,,,,,,,,,,,,,,,,,,Listen to the question and speak out your answer!,1040.8323509693146,None,1040.7979954719544,1042.8316831588745,Alex duscht morgens gerne im Badezimmer.,duscht,1042.2148420333863,1044.831768989563,1045.2150730609894,None,1057.416003894806,None,1058.8324539661407,None,./data/Subject_10/Session_03/Exp_data/2020_Aug_14_1125/rec_QA_run_01_block_000_trial_024.wav,10,03,English,A2,True,False,True,False,False,True,True,True,True,True,True,True,No,1,No,No,No,No,2020_Aug_14_1125,nibs_stage_1,3.2.3,60.02616115154863,
1,0,1,0,0,0,0,0,,,,,,,,,,,,,,,,,,1062.8500180244446,None,,,,,,,,,,,,,,,,,,,,,,,,,,10,03,English,A2,True,False,True,False,False,True,True,True,True,True,True,True,No,1,No,No,No,No,2020_Aug_14_1125,nibs_stage_1,3.2.3,60.02616115154863,
1,0,1,0,1,0,1,0,0,0,0,0,,,,,,,,,,,,,,,,,,,,,,,,,Listen to the question and speak out your answer!,1085.3339431285858,None,1085.300313615799,1087.3339550495148,Sebastian mag lieber ein schwarzes Brot mit Butter und Marmelade.,mag,1086.7172629356385,1090.9341349601746,1091.3175119876862,1092.334223985672,1101.9180688381196,1102.9347939491272,1103.3348081111908,None,./data/Subject_10/Session_03/Exp_data/2020_Aug_14_1125/rec_QA_run_01_block_001_trial_000.wav,10,03,English,A2,True,False,True,False,False,True,True,True,True,True,True,True,No,1,No,No,No,No,2020_Aug_14_1125,nibs_stage_1,3.2.3,60.02616115154863,
1,0,1,0,1,0,1,0,1,0,1,0,,,,,,,,,,,,,,,,,,,,,,,,,Listen to the question and speak out your answer!,1106.3684689998627,None,1106.351437187195,1108.3685071468353,Im Herbst werden die Blätter von den Bäumen fallen.,fallen,1107.7183939933777,None,1110.9185468673707,None,1122.9191698551178,None,1124.335921049118,None,./data/Subject_10/Session_03/Exp_data/2020_Aug_14_1125/rec_QA_run_01_block_001_trial_001.wav,10,03,English,A2,True,False,True,False,False,True,True,True,True,True,True,True,No,1,No,No,No,No,2020_Aug_14_1125,nibs_stage_1,3.2.3,60.02616115154863,
1,0,1,0,1,0,1,0,2,0,2,0,,,,,,,,,,,,,,,,,,,,,,,,,Listen to the question and speak out your answer!,1127.4200630187988,None,1127.3859752178194,1129.4195210933685,Die Bergsteiger sind in die Wand eingestiegen.,eingestiegen,1128.769475889206,None,1131.7031158924103,1132.719693183899,1143.9703020572663,None,1145.3873150348663,None,./data/Subject_10/Session_03/Exp_data/2020_Aug_14_1125/rec_QA_run_01_block_001_trial_002.wav,10,03,English,A2,True,False,True,False,False,True,True,True,True,True,True,True,No,1,No,No,No,No,2020_Aug_14_1125,nibs_stage_1,3.2.3,60.02616115154863,
1,0,1,0,1,0,1,0,3,0,3,0,,,,,,,,,,,,,,,,,,,,,,,,,Listen to the question and speak out your answer!,1148.455512046814,None,1148.4369941711427,1150.4539811611176,Ich musste heute Morgen richtig schnell nach der Busstation laufen.,laufen,1149.8372649669648,1153.6877551078796,1154.0709919452668,None,1165.0380649089814,None,1166.4547951221466,None,./data/Subject_10/Session_03/Exp_data/2020_Aug_14_1125/rec_QA_run_01_block_001_trial_003.wav,10,03,English,A2,True,False,True,False,False,True,True,True,True,True,True,True,No,1,No,No,No,No,2020_Aug_14_1125,nibs_stage_1,3.2.3,60.02616115154863,
1,0,1,0,1,0,1,0,4,0,4,0,,,,,,,,,,,,,,,,,,,,,,,,,Listen to the question and speak out your answer!,1169.5219831466675,None,1169.5047882556917,1171.5217380523682,Das Abkommen läuft noch fünf Monate. ,läuft,1170.9050440311432,None,1173.8051950454712,None,1186.089183998108,None,1187.5059130191803,None,./data/Subject_10/Session_03/Exp_data/2020_Aug_14_1125/rec_QA_run_01_block_001_trial_004.wav,10,03,English,A2,True,False,True,False,False,True,True,True,True,True,True,True,No,1,No,No,No,No,2020_Aug_14_1125,nibs_stage_1,3.2.3,60.02616115154863,
1,0,1,0,1,0,1,0,5,0,5,0,,,,,,,,,,,,,,,,,,,,,,,,,Listen to the question and speak out your answer!,1190.589406967163,None,1190.5558923244478,1192.5895221233368,Blut fließt aus einer Wunde.,fließt,1191.9394840717316,1193.789587020874,1194.1729380607605,1195.1896979808807,1207.1403140544892,None,1208.5570430755615,None,./data/Subject_10/Session_03/Exp_data/2020_Aug_14_1125/rec_QA_run_01_block_001_trial_005.wav,10,03,English,A2,True,False,True,False,False,True,True,True,True,True,True,True,No,1,No,No,No,No,2020_Aug_14_1125,nibs_stage_1,3.2.3,60.02616115154863,
1,0,1,0,1,0,1,0,6,0,6,0,,,,,,,,,,,,,,,,,,,,,,,,,Listen to the question and speak out your answer!,1211.6245701313019,None,1211.5904044151307,1213.6239590644836,"Schauen Sie nach draußen, der Schnee fällt.",fällt,1213.0074090480805,1215.5911440849304,1215.9740759849549,None,1228.2081720352173,None,1229.6248049736023,None,./data/Subject_10/Session_03/Exp_data/2020_Aug_14_1125/rec_QA_run_01_block_001_trial_006.wav,10,03,English,A2,True,False,True,False,False,True,True,True,True,True,True,True,No,1,No,No,No,No,2020_Aug_14_1125,nibs_stage_1,3.2.3,60.02616115154863,
1,0,1,0,1,0,1,0,7,0,7,0,,,,,,,,,,,,,,,,,,,,,,,,,Listen to the question and speak out your answer!,1232.6589410305023,None,1232.6247664928437,1234.658408164978,Wir können das Fleisch grillen oder braten.,grillen,1234.0417148590088,1236.5585041046143,1236.9085280418396,1237.9252400398254,1249.2428268909455,None,1250.6592700481415,None,./data/Subject_10/Session_03/Exp_data/2020_Aug_14_1125/rec_QA_run_01_block_001_trial_007.wav,10,03,English,A2,True,False,True,False,False,True,True,True,True,True,True,True,No,1,No,No,No,No,2020_Aug_14_1125,nibs_stage_1,3.2.3,60.02616115154863,
1,0,1,0,1,0,1,0,8,0,8,0,,,,,,,,,,,,,,,,,,,,,,,,,Listen to the question and speak out your answer!,1253.7100269794464,None,1253.675915336609,1255.709519147873,Martin geht in ein Reisebüro und lässt sich von einem Angestellten beraten.,beraten,1255.0594739437104,None,1260.0597450256348,None,1270.260324907303,None,1271.6770310401917,None,./data/Subject_10/Session_03/Exp_data/2020_Aug_14_1125/rec_QA_run_01_block_001_trial_008.wav,10,03,English,A2,True,False,True,False,False,True,True,True,True,True,True,True,No,1,No,No,No,No,2020_Aug_14_1125,nibs_stage_1,3.2.3,60.02616115154863,
1,0,1,0,1,0,1,0,9,0,9,0,,,,,,,,,,,,,,,,,,,,,,,,,Listen to the question and speak out your answer!,1274.7444491386414,None,1274.727281188965,1276.743803024292,"Die Deutschen sind immer organisiert und werden alles planen, bevor sie irgendetwas tun.",planen,1276.1272508621216,None,1281.5608858585358,None,1291.3280579566956,1292.3448100090027,1292.7450301647186,None,./data/Subject_10/Session_03/Exp_data/2020_Aug_14_1125/rec_QA_run_01_block_001_trial_009.wav,10,03,English,A2,True,False,True,False,False,True,True,True,True,True,True,True,No,1,No,No,No,No,2020_Aug_14_1125,nibs_stage_1,3.2.3,60.02616115154863,
1,0,1,0,1,0,1,0,10,0,10,0,,,,,,,,,,,,,,,,,,,,,,,,,Listen to the question and speak out your answer!,1295.8121860027313,None,1295.778122329712,1297.8117311000824,"Wenn der Wind stark bläst, ziehen die Wolken schnell über den Himmel.",bläst,1297.1950399398804,1300.7118890285492,1301.0952448368073,None,1312.3958239078522,None,1313.812581062317,None,./data/Subject_10/Session_03/Exp_data/2020_Aug_14_1125/rec_QA_run_01_block_001_trial_010.wav,10,03,English,A2,True,False,True,False,False,True,True,True,True,True,True,True,No,1,No,No,No,No,2020_Aug_14_1125,nibs_stage_1,3.2.3,60.02616115154863,
1,0,1,0,1,0,1,0,11,0,11,0,,,,,,,,,,,,,,,,,,,,,,,,,Listen to the question and speak out your answer!,1316.8633711338043,None,1316.8292153835298,1318.862864971161,"Um mein Auto zu kaufen, die Bank hat mir das Geld geliehen.",geliehen,1318.2461449623108,None,1322.0798179626465,1323.096419095993,1333.4136569023133,1334.4303300380707,1334.8303620815277,None,./data/Subject_10/Session_03/Exp_data/2020_Aug_14_1125/rec_QA_run_01_block_001_trial_011.wav,10,03,English,A2,True,False,True,False,False,True,True,True,True,True,True,True,No,1,No,No,No,No,2020_Aug_14_1125,nibs_stage_1,3.2.3,60.02616115154863,
1,0,1,0,1,0,1,0,12,0,12,0,,,,,,,,,,,,,,,,,,,,,,,,,Listen to the question and speak out your answer!,1337.8978180885315,None,1337.8636523723603,1339.8973009586334,Plastik Müll belastet die Umwelt.,belastet,1339.2806000232697,None,1342.0473129272461,None,1354.4813909053803,None,1355.8981320858002,None,./data/Subject_10/Session_03/Exp_data/2020_Aug_14_1125/rec_QA_run_01_block_001_trial_012.wav,10,03,English,A2,True,False,True,False,False,True,True,True,True,True,True,True,No,1,No,No,No,No,2020_Aug_14_1125,nibs_stage_1,3.2.3,60.02616115154863,
1,0,1,0,1,0,1,0,13,0,13,0,,,,,,,,,,,,,,,,,,,,,,,,,Listen to the question and speak out your answer!,1358.9318940639496,None,1358.9147201538087,1360.9317309856415,"Ich wusste nicht, ob ich lachen oder weinen sollte.",lachen,1360.3150748729706,1363.2652661800385,1363.6485249519349,None,1375.5157379627228,None,1376.9326481819153,None,./data/Subject_10/Session_03/Exp_data/2020_Aug_14_1125/rec_QA_run_01_block_001_trial_013.wav,10,03,English,A2,True,False,True,False,False,True,True,True,True,True,True,True,No,1,No,No,No,No,2020_Aug_14_1125,nibs_stage_1,3.2.3,60.02616115154863,
1,0,1,0,1,0,1,0,14,0,14,0,,,,,,,,,,,,,,,,,,,,,,,,,Listen to the question and speak out your answer!,1379.9661650657654,None,1379.9325343608857,1381.9661769866943,"Ich hoffe, dass alles gut geht. ",hoffe,1381.3495139598847,1383.1995730400085,1383.5829309940339,None,1396.5502190113068,None,1397.9670059680939,None,./data/Subject_10/Session_03/Exp_data/2020_Aug_14_1125/rec_QA_run_01_block_001_trial_014.wav,10,03,English,A2,True,False,True,False,False,True,True,True,True,True,True,True,No,1,No,No,No,No,2020_Aug_14_1125,nibs_stage_1,3.2.3,60.02616115154863,
1,0,1,0,1,0,1,0,15,0,15,0,,,,,,,,,,,,,,,,,,,,,,,,,Listen to the question and speak out your answer!,1401.0006141662598,None,1400.9836383819581,1403.0007820129395,"Ich habe probiert, ihn zu überreden, aber er will nicht uns gehen. ",probiert,1402.3839590072632,1406.0674359798431,1406.4510750293732,None,1417.5515169620514,1418.568104982376,1418.9681301116943,None,./data/Subject_10/Session_03/Exp_data/2020_Aug_14_1125/rec_QA_run_01_block_001_trial_015.wav,10,03,English,A2,True,False,True,False,False,True,True,True,True,True,True,True,No,1,No,No,No,No,2020_Aug_14_1125,nibs_stage_1,3.2.3,60.02616115154863,
1,0,1,0,1,0,1,0,16,0,16,0,,,,,,,,,,,,,,,,,,,,,,,,,Listen to the question and speak out your answer!,1422.0364711284637,None,1422.0180772304536,1424.0350461006165,Die Reparaturen werden ungefähr drei Stunden dauern.,dauern,1423.4183599472046,None,1427.1185678958893,None,1438.6194569587708,1439.636006116867,1440.0358800888062,None,./data/Subject_10/Session_03/Exp_data/2020_Aug_14_1125/rec_QA_run_01_block_001_trial_016.wav,10,03,English,A2,True,False,True,False,False,True,True,True,True,True,True,True,No,1,No,No,No,No,2020_Aug_14_1125,nibs_stage_1,3.2.3,60.02616115154863,
1,0,1,0,1,0,1,0,17,0,17,0,,,,,,,,,,,,,,,,,,,,,,,,,Listen to the question and speak out your answer!,1443.0700731277466,None,1443.0359634399415,1445.0694971084595,Er hat die Verbindung zwischen zwei Zufälligkeiten hergestellt.,hergestellt,1444.452907037735,1448.136334180832,1448.5199510574341,1449.5363960266113,1459.653605890274,None,1461.0703580379486,None,./data/Subject_10/Session_03/Exp_data/2020_Aug_14_1125/rec_QA_run_01_block_001_trial_017.wav,10,03,English,A2,True,False,True,False,False,True,True,True,True,True,True,True,No,1,No,No,No,No,2020_Aug_14_1125,nibs_stage_1,3.2.3,60.02616115154863,
1,0,1,0,1,0,1,0,18,0,18,0,,,,,,,,,,,,,,,,,,,,,,,,,Listen to the question and speak out your answer!,1464.1044659614563,None,1464.0703124046327,1466.103933095932,"Bevor es Autos gab, sind die Leute mit der Eisenbahn gefahren.",gefahren,1465.453911972046,None,1469.6874680042267,1470.7042100429535,1480.654700946808,None,1482.0715961456299,None,./data/Subject_10/Session_03/Exp_data/2020_Aug_14_1125/rec_QA_run_01_block_001_trial_018.wav,10,03,English,A2,True,False,True,False,False,True,True,True,True,True,True,True,No,1,No,No,No,No,2020_Aug_14_1125,nibs_stage_1,3.2.3,60.02616115154863,
1,0,1,0,1,0,1,0,19,0,19,0,,,,,,,,,,,,,,,,,,,,,,,,,Listen to the question and speak out your answer!,1485.1388971805573,None,1485.1047443389893,1487.1383731365204,Können Sie die Kleidung des Täters beschreiben?,beschreiben,1486.5216710090638,None,1489.3884980201722,1490.4052770137787,1501.722490978241,None,1503.1392459869385,None,./data/Subject_10/Session_03/Exp_data/2020_Aug_14_1125/rec_QA_run_01_block_001_trial_019.wav,10,03,English,A2,True,False,True,False,False,True,True,True,True,True,True,True,No,1,No,No,No,No,2020_Aug_14_1125,nibs_stage_1,3.2.3,60.02616115154863,
1,0,1,0,1,0,1,0,20,0,20,0,,,,,,,,,,,,,,,,,,,,,,,,,Listen to the question and speak out your answer!,1506.1732711791992,None,1506.13929643631,1508.1728229522705,Im Sommer gehen Alice und Tom gerne in die Bäder schwimmen.,schwimmen,1507.5562378883362,1510.9396390914917,1511.3231088638306,1512.3397359848022,1522.7236060619355,None,1524.1403970718384,None,./data/Subject_10/Session_03/Exp_data/2020_Aug_14_1125/rec_QA_run_01_block_001_trial_020.wav,10,03,English,A2,True,False,True,False,False,True,True,True,True,True,True,True,No,1,No,No,No,No,2020_Aug_14_1125,nibs_stage_1,3.2.3,60.02616115154863,
1,0,1,0,1,0,1,0,21,0,21,0,,,,,,,,,,,,,,,,,,,,,,,,,Listen to the question and speak out your answer!,1527.1910600662231,None,1527.1736384868623,1529.1906139850616,"In der Therapie lernte er, mit Angst und Stress umzugehen.",umzugehen,1528.5738899230957,None,1532.44080991745,None,1543.7746920108796,None,1545.1580171585083,None,./data/Subject_10/Session_03/Exp_data/2020_Aug_14_1125/rec_QA_run_01_block_001_trial_021.wav,10,03,English,A2,True,False,True,False,False,True,True,True,True,True,True,True,No,1,No,No,No,No,2020_Aug_14_1125,nibs_stage_1,3.2.3,60.02616115154863,
1,0,1,0,1,0,1,0,22,0,22,0,,,,,,,,,,,,,,,,,,,,,,,,,Listen to the question and speak out your answer!,1548.2097280025482,None,1548.1915773391725,1550.2084891796112,"Sie beschrieb der Polizei den Dieb so genau, dass diese ihn festnehmen konnnte.",beschrieb,1549.5916718959809,None,1554.458710861206,None,1564.7758149623871,None,1566.1925671100616,None,./data/Subject_10/Session_03/Exp_data/2020_Aug_14_1125/rec_QA_run_01_block_001_trial_022.wav,10,03,English,A2,True,False,True,False,False,True,True,True,True,True,True,True,No,1,No,No,No,No,2020_Aug_14_1125,nibs_stage_1,3.2.3,60.02616115154863,
1,0,1,0,1,0,1,0,23,0,23,0,,,,,,,,,,,,,,,,,,,,,,,,,Listen to the question and speak out your answer!,1569.2609021663666,None,1569.242511367798,1571.2598221302032,Vater trägt den großen Rucksack auf dem Rücken.,trägt,1570.6094610214234,None,1573.976288986206,1574.9930109977722,1585.8102919578553,None,1587.2270810604095,None,./data/Subject_10/Session_03/Exp_data/2020_Aug_14_1125/rec_QA_run_01_block_001_trial_023.wav,10,03,English,A2,True,False,True,False,False,True,True,True,True,True,True,True,No,1,No,No,No,No,2020_Aug_14_1125,nibs_stage_1,3.2.3,60.02616115154863,
1,0,1,0,1,0,1,0,24,0,24,0,,,,,,,,,,,,,,,,,,,,,,,,,Listen to the question and speak out your answer!,1590.2939071655273,None,1590.2603522777558,1592.293977022171,Ich nehme nicht gerne Zucker zum Tee.,nehme,1591.64389295578,1593.8940260410309,1594.277381849289,None,1606.844693851471,None,1608.261423110962,None,./data/Subject_10/Session_03/Exp_data/2020_Aug_14_1125/rec_QA_run_01_block_001_trial_024.wav,10,03,English,A2,True,False,True,False,False,True,True,True,True,True,True,True,No,1,No,No,No,No,2020_Aug_14_1125,nibs_stage_1,3.2.3,60.02616115154863,
