run.thisRepN,run.thisTrialN,run.thisN,run.thisIndex,artifact_trial.thisRepN,artifact_trial.thisTrialN,artifact_trial.thisN,artifact_trial.thisIndex,QA_block.thisRepN,QA_block.thisTrialN,QA_block.thisN,QA_block.thisIndex,QA_trial.thisRepN,QA_trial.thisTrialN,QA_trial.thisN,QA_trial.thisIndex,fade_in_text.text,fade_in_text.started,fade_in_text.stopped,Artifact_intro_title.started,Artifact_intro_title.stopped,Artifact_intro_text.text,Artifact_intro_text.started,Artifact_intro_text.stopped,Artifact_intro_audio.started,Artifact_intro_audio.stopped,Artifact_intro_cont.started,Artifact_intro_cont.stopped,Artifact_rec_text.text,Artifact_rec_text.started,Artifact_rec_text.stopped,Artifact_rec_beep_hint.started,Artifact_rec_beep_hint.stopped,Artifact_rec_action.started,Artifact_rec_action.stopped,Artifact_rec_beep_start.started,Artifact_rec_beep_start.stopped,Artifact_rec_recording.started,Artifact_rec_recording.stopped,Artifact_rec_beep_end.started,Artifact_rec_beep_end.stopped,Artifact_rec_break.started,Artifact_rec_break.stopped,RS_intro_title.started,RS_intro_title.stopped,RS_intro_text.text,RS_intro_text.started,RS_intro_text.stopped,RS_intro_audio.started,RS_intro_audio.stopped,RS_rec_text.text,RS_rec_text.started,RS_rec_text.stopped,Pause_cont.started,Pause_cont.stopped,QA_intro_title.started,QA_intro_title.stopped,QA_intro_text.text,QA_intro_text.started,QA_intro_text.stopped,QA_intro_audio.started,QA_intro_audio.stopped,QA_intro_cont.started,QA_intro_cont.stopped,QA_rec_text.text,QA_rec_text.started,QA_rec_text.stopped,QA_rec_beep_hint.started,QA_rec_beep_hint.stopped,QA_rec_question.sen_text,QA_rec_question.cen_text,QA_rec_question.started,QA_rec_question.stopped,QA_rec_beep_start.started,QA_rec_beep_start.stopped,QA_rec_beep_end.started,QA_rec_beep_end.stopped,QA_rec_break.started,QA_rec_break.stopped,filename,fade_out_text.text,fade_out_text.started,fade_out_text.stopped,participant,session,First language,German level,Full_screen,Instruction,Intro,Artifact,Cali_pre,Fade_in_out,Artifact_within,Resting_State,QA,Pause,Cali_post,End,Breakpoint_Cali_pre_trial,Breakpoint_Run,Breakpoint_RS_block,Breakpoint_QA_block,Breakpoint_QA_trial,Breakpoint_Cali_post_trial,date,expName,psychopyVersion,frameRate,
2,0,2,0,0,0,0,0,,,,,,,,,Please remain seated until further instruction via the earphone.,57.20521688461304,None,59.23868989944458,None,"  - Task: Artifacts collection   
  - Please follow audio instruction              
",59.23868989944458,None,59.22101616859436,None,85.62309694290161,None,,87.77384209632874,None,87.7556312084198,89.75760388374329,89.1402313709259,None,92.5412163734436,None,93.94113540649414,103.94101905822754,104.34103536605835,None,105.74102997779846,106.74116706848145,,,,,,,,,,,,,,,,,,,,,,,,,,,,,,,,,,,,,,,,,10,03,English,A2,True,False,True,False,False,True,True,True,True,True,True,True,No,2,No,No,No,No,2020_Aug_14_1159,nibs_stage_1,3.2.3,60.06871454534257,
2,0,2,0,1,0,1,0,,,,,,,,,,,,,,,,,,,,,,109.79135203361511,None,109.77402520179749,111.77466487884521,111.15772747993469,None,114.55813646316528,115.55821490287781,115.9581925868988,125.95894193649292,126.35881447792053,None,127.75907707214355,128.75987100601196,,,,,,,,,,,,,,,,,,,,,,,,,,,,,,,,,,,,,,,,,10,03,English,A2,True,False,True,False,False,True,True,True,True,True,True,True,No,2,No,No,No,No,2020_Aug_14_1159,nibs_stage_1,3.2.3,60.06871454534257,
2,0,2,0,2,0,2,0,,,,,,,,,,,,,,,,,,,,,,131.80922889709473,None,131.79161620140076,133.7926049232483,133.1760754585266,None,136.57624340057373,137.576171875,137.97616839408875,147.97660088539124,148.3768754005432,None,149.79324007034302,150.79369497299194,,,,,,,,,,,,,,,,,,,,,,,,,,,,,,,,,,,,,,,,,10,03,English,A2,True,False,True,False,False,True,True,True,True,True,True,True,No,2,No,No,No,No,2020_Aug_14_1159,nibs_stage_1,3.2.3,60.06871454534257,
2,0,2,0,3,0,3,0,,,,,,,,,,,,,,,,,,,,,,153.82705092430115,None,153.8092873096466,155.8104169368744,155.1938624382019,None,158.59390258789062,159.59395694732666,159.99397444725037,169.99453687667847,170.39419746398926,None,171.79438495635986,172.7944118976593,,,,,,,,,,,,,,,,,,,,,,,,,,,,,,,,,,,,,,,,,10,03,English,A2,True,False,True,False,False,True,True,True,True,True,True,True,No,2,No,No,No,No,2020_Aug_14_1159,nibs_stage_1,3.2.3,60.06871454534257,
2,0,2,0,4,0,4,0,,,,,,,,,,,,,,,,,,,,,,175.84494304656982,None,175.8271951675415,177.82848691940308,177.21159148216248,None,180.61141848564148,None,182.01161336898804,192.01203107833862,192.41205859184265,None,193.81219792366028,194.82910704612732,,,,,,,,,,,,,,,,,,,,,,,,,,,,,,,,,,,,,,,,,10,03,English,A2,True,False,True,False,False,True,True,True,True,True,True,True,No,2,No,No,No,No,2020_Aug_14_1159,nibs_stage_1,3.2.3,60.06871454534257,
2,0,2,0,5,0,5,0,,,,,,,,,,,,,,,,,,,,,,197.86337089538574,None,197.84485936164856,199.84592008590698,199.22915148735046,None,202.62937450408936,None,204.02955150604248,214.02996706962585,214.43004536628723,None,215.8300359249115,216.83012986183167,,,,,,,,,,,,,,,,,,,,,,,,,,,,,,,,,,,,,,,,,10,03,English,A2,True,False,True,False,False,True,True,True,True,True,True,True,No,2,No,No,No,No,2020_Aug_14_1159,nibs_stage_1,3.2.3,60.06871454534257,
2,0,2,0,6,0,6,0,,,,,,,,,,,,,,,,,,,,,,219.880676984787,None,219.86269617080688,221.86373901367188,221.2471284866333,None,224.64715051651,225.66402506828308,226.04736351966858,236.04784202575684,236.44788551330566,None,237.84790897369385,238.8479199409485,,,,,,,,,,,,,,,,,,,,,,,,,,,,,,,,,,,,,,,,,10,03,English,A2,True,False,True,False,False,True,True,True,True,True,True,True,No,2,No,No,No,No,2020_Aug_14_1159,nibs_stage_1,3.2.3,60.06871454534257,
2,0,2,0,7,0,7,0,,,,,,,,,,,,,,,,,,,,,,241.89820194244385,None,241.88044023513794,243.88158106803894,243.26481437683105,246.26507186889648,246.66507744789124,None,248.06507539749146,258.0656268596649,258.4658625125885,None,259.8657479286194,260.86610889434814,,,,,,,,,,,,,,,,,,,,,,,,,,,,,,,,,,,,,,,,,10,03,English,A2,True,False,True,False,False,True,True,True,True,True,True,True,No,2,No,No,No,No,2020_Aug_14_1159,nibs_stage_1,3.2.3,60.06871454534257,
2,0,2,0,8,0,8,0,,,,,,,,,,,,,,,,,,,,,,263.91612100601196,None,263.8985102176666,265.899621963501,265.2828514575958,268.2830400466919,268.6831684112549,None,270.0995523929596,280.1167619228363,280.5001103878021,None,281.9169840812683,282.9502799510956,,,,,,,,,,,,,,,,,,,,,,,,,,,,,,,,,,,,,,,,,10,03,English,A2,True,False,True,False,False,True,True,True,True,True,True,True,No,2,No,No,No,No,2020_Aug_14_1159,nibs_stage_1,3.2.3,60.06871454534257,
2,0,2,0,9,0,9,0,,,,,,,,,,,,,,,,,,,,,,285.9516580104828,None,285.9327721595764,287.95050597190857,287.3337473869324,290.35061287879944,290.73397159576416,None,292.1340665817261,302.1512529850006,302.5345845222473,None,303.9513359069824,304.9847500324249,,,,,,,,,,,,,,,,,,,,,,,,,,,,,,,,,,,,,,,,,10,03,English,A2,True,False,True,False,False,True,True,True,True,True,True,True,No,2,No,No,No,No,2020_Aug_14_1159,nibs_stage_1,3.2.3,60.06871454534257,
2,0,2,0,10,0,10,0,,,,,,,,,,,,,,,,,,,,,,307.98601508140564,None,307.9672532081604,309.98500204086304,309.36830258369446,None,312.7685785293579,None,314.16853737831116,324.1857590675354,324.5692195892334,None,325.98587107658386,327.0192310810089,,,,,,,,,,,,,,,,,,,,,,,,,,,,,,,,,,,,,,,,,10,03,English,A2,True,False,True,False,False,True,True,True,True,True,True,True,No,2,No,No,No,No,2020_Aug_14_1159,nibs_stage_1,3.2.3,60.06871454534257,
2,0,2,0,11,0,11,0,,,,,,,,,,,,,,,,,,,,,,330.0196809768677,None,330.0017352104187,332.01949405670166,331.4027714729309,None,334.80296444892883,335.8196940422058,336.20303559303284,346.22024393081665,346.60359954833984,None,348.02050495147705,349.053719997406,,,,,,,,,,,,,,,,,,,,,,,,,,,,,,,,,,,,,,,,,10,03,English,A2,True,False,True,False,False,True,True,True,True,True,True,True,No,2,No,No,No,No,2020_Aug_14_1159,nibs_stage_1,3.2.3,60.06871454534257,
2,0,2,0,12,0,12,0,,,,,,,,,,,,,,,,,,,,,,352.0540659427643,None,352.03623819351196,354.0539860725403,353.43727350234985,356.45415902137756,356.83757042884827,None,358.237601518631,368.2547450065613,368.63808941841125,None,370.05483293533325,371.08823108673096,,,,,,,,,,,,,,,,,,,,,,,,,,,,,,,,,,,,,,,,,10,03,English,A2,True,False,True,False,False,True,True,True,True,True,True,True,No,2,No,No,No,No,2020_Aug_14_1159,nibs_stage_1,3.2.3,60.06871454534257,
2,0,2,0,13,0,13,0,,,,,,,,,,,,,,,,,,,,,,374.0886490345001,None,374.0707411766052,376.08860206604004,375.4717845916748,None,378.8719584941864,None,380.2720305919647,390.28921389579773,390.6726155281067,None,392.08932995796204,393.12269496917725,,,,,,,,,,,,,,,,,,,,,,,,,,,,,,,,,,,,,,,,,10,03,English,A2,True,False,True,False,False,True,True,True,True,True,True,True,No,2,No,No,No,No,2020_Aug_14_1159,nibs_stage_1,3.2.3,60.06871454534257,
2,0,2,0,14,0,14,0,,,,,,,,,,,,,,,,,,,,,,396.12323689460754,None,396.1052362918854,398.1230299472809,397.50638937950134,None,400.90643644332886,None,402.306533575058,412.3237669467926,412.70707058906555,None,414.1238260269165,415.15712904930115,,,,,,,,,,,,,,,,,,,,,,,,,,,,,,,,,,,,,,,,,10,03,English,A2,True,False,True,False,False,True,True,True,True,True,True,True,No,2,No,No,No,No,2020_Aug_14_1159,nibs_stage_1,3.2.3,60.06871454534257,
2,0,2,0,,,,,0,0,0,0,0,0,0,0,,,,,,,,,,,,,,,,,,,,,,,,,,,,625.5852229595184,None," - Task: Keep seated and relaxed with either      
             opening or closing eyes                  
 - Beep sound with decreasing pitch: Block finish 
",625.5852229595184,None,625.5673017501831,None,"Please keep relaxed and close your eyes.
",648.6379809379578,828.6792759895325,832.0792858600616,None,848.6145350933075,None," - Task: Listen to the question& Speak out answer 
 - Melodious beep sound: Trial start              
 - Silent sound (blank): censored word            
 - Beep sound with increasing pitch: Rec. start   
 - Beep sound with decreasing pitch: Rec. finish  
",848.6145350933075,None,848.5952870845795,None,888.0321700572968,None,Listen to the question and speak out your answer!,891.0995409488678,None,891.0808582305908,893.0990710258484,Die Band beendete das Konzert unter großem Beifall.,beendete,892.4824004173279,None,896.1825625896454,897.1993088722229,907.6831114292145,None,909.099956035614,None,./data/Subject_10/Session_03/Exp_data/2020_Aug_14_1159/rec_QA_run_02_block_000_trial_000.wav,,,,10,03,English,A2,True,False,True,False,False,True,True,True,True,True,True,True,No,2,No,No,No,No,2020_Aug_14_1159,nibs_stage_1,3.2.3,60.06871454534257,
2,0,2,0,,,,,0,0,0,0,1,0,1,0,,,,,,,,,,,,,,,,,,,,,,,,,,,,,,,,,,,,,,,,,,,,,,,,,Listen to the question and speak out your answer!,912.150897026062,None,912.1326258182526,914.1502509117126,"Er wird seinem Traum folgen, egal was die Leute reden.",reden,913.5335164070129,916.9839670658112,917.3336975574493,918.3504369258881,928.7343714237213,None,930.1510128974915,None,./data/Subject_10/Session_03/Exp_data/2020_Aug_14_1159/rec_QA_run_02_block_000_trial_001.wav,,,,10,03,English,A2,True,False,True,False,False,True,True,True,True,True,True,True,No,2,No,No,No,No,2020_Aug_14_1159,nibs_stage_1,3.2.3,60.06871454534257,
2,0,2,0,,,,,0,0,0,0,2,0,2,0,,,,,,,,,,,,,,,,,,,,,,,,,,,,,,,,,,,,,,,,,,,,,,,,,Listen to the question and speak out your answer!,933.1856780052185,None,933.166942358017,935.1846539974213,"Ich möchte dich nicht täuschen, also werde ich dir die Wahrheit sagen.",täuschen,934.5681164264679,None,938.7015135288239,None,949.752105474472,None,951.1688258647919,None,./data/Subject_10/Session_03/Exp_data/2020_Aug_14_1159/rec_QA_run_02_block_000_trial_002.wav,,,,10,03,English,A2,True,False,True,False,False,True,True,True,True,True,True,True,No,2,No,No,No,No,2020_Aug_14_1159,nibs_stage_1,3.2.3,60.06871454534257,
2,0,2,0,,,,,0,0,0,0,3,0,3,0,,,,,,,,,,,,,,,,,,,,,,,,,,,,,,,,,,,,,,,,,,,,,,,,,Listen to the question and speak out your answer!,954.2197239398956,None,954.20134973526,956.21910405159,Ein König wohnt in einem Schloss.,wohnt,955.6024024486542,None,957.9358534812927,None,970.8032224178314,None,972.2199289798737,None,./data/Subject_10/Session_03/Exp_data/2020_Aug_14_1159/rec_QA_run_02_block_000_trial_003.wav,,,,10,03,English,A2,True,False,True,False,False,True,True,True,True,True,True,True,No,2,No,No,No,No,2020_Aug_14_1159,nibs_stage_1,3.2.3,60.06871454534257,
2,0,2,0,,,,,0,0,0,0,4,0,4,0,,,,,,,,,,,,,,,,,,,,,,,,,,,,,,,,,,,,,,,,,,,,,,,,,Listen to the question and speak out your answer!,975.270665884018,None,975.2524547576904,977.2702469825745,"Leichte Sprache ist eine Hilfe für Menschen , die keine schwierige Sprache verstehen.",verstehen,976.6536045074463,None,982.0871255397797,None,991.8542325496674,992.8710398674011,993.2710659503937,None,./data/Subject_10/Session_03/Exp_data/2020_Aug_14_1159/rec_QA_run_02_block_000_trial_004.wav,,,,10,03,English,A2,True,False,True,False,False,True,True,True,True,True,True,True,No,2,No,No,No,No,2020_Aug_14_1159,nibs_stage_1,3.2.3,60.06871454534257,
2,0,2,0,,,,,0,0,0,0,5,0,5,0,,,,,,,,,,,,,,,,,,,,,,,,,,,,,,,,,,,,,,,,,,,,,,,,,Listen to the question and speak out your answer!,996.3380920886993,None,996.3036968708038,998.3380250930786,Die Universität hat meinen Studentenausweis ausgestellt.,ausgestellt,997.7214124202728,1001.3384010791779,1001.7216925621033,1002.7382369041443,1012.9220824241638,None,1014.3388330936432,None,./data/Subject_10/Session_03/Exp_data/2020_Aug_14_1159/rec_QA_run_02_block_000_trial_005.wav,,,,10,03,English,A2,True,False,True,False,False,True,True,True,True,True,True,True,No,2,No,No,No,No,2020_Aug_14_1159,nibs_stage_1,3.2.3,60.06871454534257,
2,0,2,0,,,,,0,0,0,0,6,0,6,0,,,,,,,,,,,,,,,,,,,,,,,,,,,,,,,,,,,,,,,,,,,,,,,,,Listen to the question and speak out your answer!,1017.3562409877777,None,1017.3379378318787,1019.3558180332184,"Er lieh mir Geld, ohne Zinsen zu verlangen.",lieh,1018.7390925884247,1021.3892180919647,1021.8058934211731,None,1033.9397864341736,None,1035.3566310405731,None,./data/Subject_10/Session_03/Exp_data/2020_Aug_14_1159/rec_QA_run_02_block_000_trial_006.wav,,,,10,03,English,A2,True,False,True,False,False,True,True,True,True,True,True,True,No,2,No,No,No,No,2020_Aug_14_1159,nibs_stage_1,3.2.3,60.06871454534257,
2,0,2,0,,,,,0,0,0,0,7,0,7,0,,,,,,,,,,,,,,,,,,,,,,,,,,,,,,,,,,,,,,,,,,,,,,,,,Listen to the question and speak out your answer!,1038.4085879325867,None,1038.3891308307648,1040.406907081604,"Die Geheimzahl sollte nicht notiert werden, vor allem nicht auf der Bankomatkarte.",notiert,1039.7568345069885,None,1044.990502357483,1046.0070979595184,1054.9576485157013,None,1056.374410867691,None,./data/Subject_10/Session_03/Exp_data/2020_Aug_14_1159/rec_QA_run_02_block_000_trial_007.wav,,,,10,03,English,A2,True,False,True,False,False,True,True,True,True,True,True,True,No,2,No,No,No,No,2020_Aug_14_1159,nibs_stage_1,3.2.3,60.06871454534257,
2,0,2,0,,,,,0,0,0,0,8,0,8,0,,,,,,,,,,,,,,,,,,,,,,,,,,,,,,,,,,,,,,,,,,,,,,,,,Listen to the question and speak out your answer!,1059.441379070282,None,1059.4235701560974,1061.4414670467377,Entweder hat mir jemand die Geldtasche gestohlen oder ich habe sie verloren.,verloren,1060.8246185779572,None,1065.5582065582275,None,1076.0254254341125,None,1077.4422860145569,None,./data/Subject_10/Session_03/Exp_data/2020_Aug_14_1159/rec_QA_run_02_block_000_trial_008.wav,,,,10,03,English,A2,True,False,True,False,False,True,True,True,True,True,True,True,No,2,No,No,No,No,2020_Aug_14_1159,nibs_stage_1,3.2.3,60.06871454534257,
2,0,2,0,,,,,0,0,0,0,9,0,9,0,,,,,,,,,,,,,,,,,,,,,,,,,,,,,,,,,,,,,,,,,,,,,,,,,Listen to the question and speak out your answer!,1080.4596419334412,None,1080.4413866996765,1082.459107875824,Ich fühle die warme Sonne auf meiner Haut.,fühle,1081.8424813747406,None,1084.7426345348358,None,1097.0433003902435,1098.0601348876953,1098.4599030017853,None,./data/Subject_10/Session_03/Exp_data/2020_Aug_14_1159/rec_QA_run_02_block_000_trial_009.wav,,,,10,03,English,A2,True,False,True,False,False,True,True,True,True,True,True,True,No,2,No,No,No,No,2020_Aug_14_1159,nibs_stage_1,3.2.3,60.06871454534257,
2,0,2,0,,,,,0,0,0,0,10,0,10,0,,,,,,,,,,,,,,,,,,,,,,,,,,,,,,,,,,,,,,,,,,,,,,,,,Listen to the question and speak out your answer!,1101.5274839401245,None,1101.4924976825714,1103.5268778800964,Mit der Benzin wird der Motor des Autos angetrieben.,angetrieben,1102.9101893901825,None,1106.4103605747223,None,1118.111189365387,1119.1277389526367,1119.5280270576477,None,./data/Subject_10/Session_03/Exp_data/2020_Aug_14_1159/rec_QA_run_02_block_000_trial_010.wav,,,,10,03,English,A2,True,False,True,False,False,True,True,True,True,True,True,True,No,2,No,No,No,No,2020_Aug_14_1159,nibs_stage_1,3.2.3,60.06871454534257,
2,0,2,0,,,,,0,0,0,0,11,0,11,0,,,,,,,,,,,,,,,,,,,,,,,,,,,,,,,,,,,,,,,,,,,,,,,,,Listen to the question and speak out your answer!,1122.5779559612274,None,1122.5436081886292,1124.5779139995575,Im Herbst verfärben sich die Blätter gelb und fallen auf den Boden.,fallen,1123.9279685020447,1127.7448470592499,1128.1615235805511,None,1139.1453404426575,None,1140.5621769428253,None,./data/Subject_10/Session_03/Exp_data/2020_Aug_14_1159/rec_QA_run_02_block_000_trial_011.wav,,,,10,03,English,A2,True,False,True,False,False,True,True,True,True,True,True,True,No,2,No,No,No,No,2020_Aug_14_1159,nibs_stage_1,3.2.3,60.06871454534257,
2,0,2,0,,,,,0,0,0,0,12,0,12,0,,,,,,,,,,,,,,,,,,,,,,,,,,,,,,,,,,,,,,,,,,,,,,,,,Listen to the question and speak out your answer!,1143.6124300956726,None,1143.5779583454132,1145.6124489307404,Auf Lavaerde wachsen sehr gute Weintrauben.,wachsen,1144.9623954296112,None,1148.5292403697968,None,1160.1631915569305,None,1161.5803389549255,None,./data/Subject_10/Session_03/Exp_data/2020_Aug_14_1159/rec_QA_run_02_block_000_trial_012.wav,,,,10,03,English,A2,True,False,True,False,False,True,True,True,True,True,True,True,No,2,No,No,No,No,2020_Aug_14_1159,nibs_stage_1,3.2.3,60.06871454534257,
2,0,2,0,,,,,0,0,0,0,13,0,13,0,,,,,,,,,,,,,,,,,,,,,,,,,,,,,,,,,,,,,,,,,,,,,,,,,Listen to the question and speak out your answer!,1164.6474120616913,None,1164.612471818924,1166.6469240188599,Ich koche die Kartoffeln für die Kartoffelsuppe.,koche,1166.0301823616028,None,1169.2303614616394,None,1181.2309765815735,None,1182.64772605896,None,./data/Subject_10/Session_03/Exp_data/2020_Aug_14_1159/rec_QA_run_02_block_000_trial_013.wav,,,,10,03,English,A2,True,False,True,False,False,True,True,True,True,True,True,True,No,2,No,No,No,No,2020_Aug_14_1159,nibs_stage_1,3.2.3,60.06871454534257,
2,0,2,0,,,,,0,0,0,0,14,0,14,0,,,,,,,,,,,,,,,,,,,,,,,,,,,,,,,,,,,,,,,,,,,,,,,,,Listen to the question and speak out your answer!,1185.6813249588013,None,1185.646939754486,1187.6813209056854,"Es ist nicht erlaubt für alle Autos, vor dem Notausgang zu parken.",parken,1187.0646214485168,1191.1486558914185,1191.5316455364227,None,1202.2654514312744,1203.2822239398956,1203.6822469234467,None,./data/Subject_10/Session_03/Exp_data/2020_Aug_14_1159/rec_QA_run_02_block_000_trial_014.wav,,,,10,03,English,A2,True,False,True,False,False,True,True,True,True,True,True,True,No,2,No,No,No,No,2020_Aug_14_1159,nibs_stage_1,3.2.3,60.06871454534257,
2,0,2,0,,,,,0,0,0,0,15,0,15,0,,,,,,,,,,,,,,,,,,,,,,,,,,,,,,,,,,,,,,,,,,,,,,,,,Listen to the question and speak out your answer!,1206.7156698703766,None,1206.6813666820526,1208.7158720493317,"Bitte, erinnern Sie mich daran, wenn ich es vergessen sollte.",erinnern,1208.09907746315,1211.482591867447,1211.8658933639526,None,1223.299863576889,None,1224.716621875763,None,./data/Subject_10/Session_03/Exp_data/2020_Aug_14_1159/rec_QA_run_02_block_000_trial_015.wav,,,,10,03,English,A2,True,False,True,False,False,True,True,True,True,True,True,True,No,2,No,No,No,No,2020_Aug_14_1159,nibs_stage_1,3.2.3,60.06871454534257,
2,0,2,0,,,,,0,0,0,0,16,0,16,0,,,,,,,,,,,,,,,,,,,,,,,,,,,,,,,,,,,,,,,,,,,,,,,,,Listen to the question and speak out your answer!,1227.7507610321045,None,1227.7157607078552,1229.7502410411835,Können Sie fünfzig Euro wechseln?,wechseln,1229.1335055828094,None,1231.7002964019775,1232.716975927353,1244.334487438202,1245.35102891922,1245.7510468959808,None,./data/Subject_10/Session_03/Exp_data/2020_Aug_14_1159/rec_QA_run_02_block_000_trial_016.wav,,,,10,03,English,A2,True,False,True,False,False,True,True,True,True,True,True,True,No,2,No,No,No,No,2020_Aug_14_1159,nibs_stage_1,3.2.3,60.06871454534257,
2,0,2,0,,,,,0,0,0,0,17,0,17,0,,,,,,,,,,,,,,,,,,,,,,,,,,,,,,,,,,,,,,,,,,,,,,,,,Listen to the question and speak out your answer!,1248.7854778766632,None,1248.7669172286987,1250.7846500873566,Bald wird in den USA ein neuer Präsident gewählt.,gewählt,1250.168196439743,None,1253.6681325435638,None,1265.3687584400177,None,1266.7855370044708,None,./data/Subject_10/Session_03/Exp_data/2020_Aug_14_1159/rec_QA_run_02_block_000_trial_017.wav,,,,10,03,English,A2,True,False,True,False,False,True,True,True,True,True,True,True,No,2,No,No,No,No,2020_Aug_14_1159,nibs_stage_1,3.2.3,60.06871454534257,
2,0,2,0,,,,,0,0,0,0,18,0,18,0,,,,,,,,,,,,,,,,,,,,,,,,,,,,,,,,,,,,,,,,,,,,,,,,,Listen to the question and speak out your answer!,1269.8532440662384,None,1269.834673166275,1271.8524160385132,Ich habe meinen Sohn für den Kurs angemeldet.,angemeldet,1271.235717535019,1273.9192810058594,1274.302586555481,None,1286.4032673835754,None,1287.8199870586395,None,./data/Subject_10/Session_03/Exp_data/2020_Aug_14_1159/rec_QA_run_02_block_000_trial_018.wav,,,,10,03,English,A2,True,False,True,False,False,True,True,True,True,True,True,True,No,2,No,No,No,No,2020_Aug_14_1159,nibs_stage_1,3.2.3,60.06871454534257,
2,0,2,0,,,,,0,0,0,0,19,0,19,0,,,,,,,,,,,,,,,,,,,,,,,,,,,,,,,,,,,,,,,,,,,,,,,,,Listen to the question and speak out your answer!,1290.8876609802246,None,1290.8691351413727,1292.8868780136108,Manche Politiker wollen den Frieden auf Erden sichern.,sichern,1292.2701723575592,1295.5208349227905,1295.8703603744507,1296.8870759010315,1307.4376394748688,None,1308.8543949127197,None,./data/Subject_10/Session_03/Exp_data/2020_Aug_14_1159/rec_QA_run_02_block_000_trial_019.wav,,,,10,03,English,A2,True,False,True,False,False,True,True,True,True,True,True,True,No,2,No,No,No,No,2020_Aug_14_1159,nibs_stage_1,3.2.3,60.06871454534257,
2,0,2,0,,,,,0,0,0,0,20,0,20,0,,,,,,,,,,,,,,,,,,,,,,,,,,,,,,,,,,,,,,,,,,,,,,,,,Listen to the question and speak out your answer!,1311.9218480587006,None,1311.8869466781616,1313.9212300777435,Er hat meine Sympathie gewonnen.,gewonnen,1313.3046433925629,1315.188071012497,1315.5714013576508,None,1328.5054204463959,None,1329.9223709106445,None,./data/Subject_10/Session_03/Exp_data/2020_Aug_14_1159/rec_QA_run_02_block_000_trial_020.wav,,,,10,03,English,A2,True,False,True,False,False,True,True,True,True,True,True,True,No,2,No,No,No,No,2020_Aug_14_1159,nibs_stage_1,3.2.3,60.06871454534257,
2,0,2,0,,,,,0,0,0,0,21,0,21,0,,,,,,,,,,,,,,,,,,,,,,,,,,,,,,,,,,,,,,,,,,,,,,,,,Listen to the question and speak out your answer!,1332.956305027008,None,1332.9213898181915,1334.9557909965515,"Mein Zimmer ist zu unordentlich, also muss ich es aufräumen.",aufräumen,1334.3057193756104,None,1338.2059254646301,1339.2226979732513,1349.5065174102783,None,1350.9231960773468,None,./data/Subject_10/Session_03/Exp_data/2020_Aug_14_1159/rec_QA_run_02_block_000_trial_021.wav,,,,10,03,English,A2,True,False,True,False,False,True,True,True,True,True,True,True,No,2,No,No,No,No,2020_Aug_14_1159,nibs_stage_1,3.2.3,60.06871454534257,
2,0,2,0,,,,,0,0,0,0,22,0,22,0,,,,,,,,,,,,,,,,,,,,,,,,,,,,,,,,,,,,,,,,,,,,,,,,,Listen to the question and speak out your answer!,1353.9739639759064,None,1353.9394233226776,1355.9735560417175,"Die USA gewannen den Zweiten Weltkrieg, nachdem sie mehrere Jahre lang gekämpft hatten.",gewannen,1355.3567385673523,None,1361.1571583747864,None,1370.55762052536,None,1371.9743719100952,None,./data/Subject_10/Session_03/Exp_data/2020_Aug_14_1159/rec_QA_run_02_block_000_trial_022.wav,,,,10,03,English,A2,True,False,True,False,False,True,True,True,True,True,True,True,No,2,No,No,No,No,2020_Aug_14_1159,nibs_stage_1,3.2.3,60.06871454534257,
2,0,2,0,,,,,0,0,0,0,23,0,23,0,,,,,,,,,,,,,,,,,,,,,,,,,,,,,,,,,,,,,,,,,,,,,,,,,Listen to the question and speak out your answer!,1375.0084838867188,None,1374.9735536575317,1377.0082499980927,"Wie lange benötigt die Erde, um die Sonne zu umrunden?",benötigt,1376.3579404354095,1379.9080970287323,1380.2915694713593,None,1391.5588114261627,None,1392.9756140708923,None,./data/Subject_10/Session_03/Exp_data/2020_Aug_14_1159/rec_QA_run_02_block_000_trial_023.wav,,,,10,03,English,A2,True,False,True,False,False,True,True,True,True,True,True,True,No,2,No,No,No,No,2020_Aug_14_1159,nibs_stage_1,3.2.3,60.06871454534257,
2,0,2,0,,,,,0,0,0,0,24,0,24,0,,,,,,,,,,,,,,,,,,,,,,,,,,,,,,,,,,,,,,,,,,,,,,,,,Listen to the question and speak out your answer!,1396.0429379940033,None,1396.00798869133,1398.0424230098724,"Er kann zwanzig Zigarattes pro Tag rauchen, was sehr ungesund ist.",rauchen,1397.4257564544678,None,1402.025951385498,None,1412.6265194416046,None,1414.0432748794556,None,./data/Subject_10/Session_03/Exp_data/2020_Aug_14_1159/rec_QA_run_02_block_000_trial_024.wav,,,,10,03,English,A2,True,False,True,False,False,True,True,True,True,True,True,True,No,2,No,No,No,No,2020_Aug_14_1159,nibs_stage_1,3.2.3,60.06871454534257,
2,0,2,0,,,,,0,0,0,0,,,,,,,,,,,,,,,,,,,,,,,,,,,,,,,,,,,,,,,,,,1418.0601539611816,None,,,,,,,,,,,,,,,,,,,,,,,,,,,,,10,03,English,A2,True,False,True,False,False,True,True,True,True,True,True,True,No,2,No,No,No,No,2020_Aug_14_1159,nibs_stage_1,3.2.3,60.06871454534257,
2,0,2,0,,,,,1,0,1,0,0,0,0,0,,,,,,,,,,,,,,,,,,,,,,,,,,,,,,,,,,,,,,,,,,,,,,,,,Listen to the question and speak out your answer!,1433.795212984085,None,1433.7762670516968,1435.7944450378418,Bananen können wir in der Obstabteilung finden.,finden,1435.1777033805847,None,1438.5112824440002,None,1450.378532409668,None,1451.7953050136566,None,./data/Subject_10/Session_03/Exp_data/2020_Aug_14_1159/rec_QA_run_02_block_001_trial_000.wav,,,,10,03,English,A2,True,False,True,False,False,True,True,True,True,True,True,True,No,2,No,No,No,No,2020_Aug_14_1159,nibs_stage_1,3.2.3,60.06871454534257,
2,0,2,0,,,,,1,0,1,0,1,0,1,0,,,,,,,,,,,,,,,,,,,,,,,,,,,,,,,,,,,,,,,,,,,,,,,,,Listen to the question and speak out your answer!,1454.8289849758148,None,1454.7946207523346,1456.8288679122925,Das Fleisch wurde über dem offenen Feuer gegrillt.,gegrillt,1456.2122745513916,None,1459.5789954662323,None,1471.4130175113678,None,1472.829703092575,None,./data/Subject_10/Session_03/Exp_data/2020_Aug_14_1159/rec_QA_run_02_block_001_trial_001.wav,,,,10,03,English,A2,True,False,True,False,False,True,True,True,True,True,True,True,No,2,No,No,No,No,2020_Aug_14_1159,nibs_stage_1,3.2.3,60.06871454534257,
2,0,2,0,,,,,1,0,1,0,2,0,2,0,,,,,,,,,,,,,,,,,,,,,,,,,,,,,,,,,,,,,,,,,,,,,,,,,Listen to the question and speak out your answer!,1475.8641049861908,None,1475.845466375351,1477.863296031952,"Nachdem mein erster Versuch gescheitert war, probierte ich es noch einmal.",probierte,1477.2132594585419,1481.3301260471344,1481.7134964466095,1482.7302660942078,1492.414071559906,None,1493.8308289051056,None,./data/Subject_10/Session_03/Exp_data/2020_Aug_14_1159/rec_QA_run_02_block_001_trial_002.wav,,,,10,03,English,A2,True,False,True,False,False,True,True,True,True,True,True,True,No,2,No,No,No,No,2020_Aug_14_1159,nibs_stage_1,3.2.3,60.06871454534257,
2,0,2,0,,,,,1,0,1,0,3,0,3,0,,,,,,,,,,,,,,,,,,,,,,,,,,,,,,,,,,,,,,,,,,,,,,,,,Listen to the question and speak out your answer!,1496.8991720676422,None,1496.8799703121185,1498.897737979889,Ich arbeite normalerweise von Montag bis Freitag.,arbeite,1498.281305551529,1501.6645538806915,1502.04789853096,None,1513.4818465709686,None,1514.898593902588,None,./data/Subject_10/Session_03/Exp_data/2020_Aug_14_1159/rec_QA_run_02_block_001_trial_003.wav,,,,10,03,English,A2,True,False,True,False,False,True,True,True,True,True,True,True,No,2,No,No,No,No,2020_Aug_14_1159,nibs_stage_1,3.2.3,60.06871454534257,
2,0,2,0,,,,,1,0,1,0,4,0,4,0,,,,,,,,,,,,,,,,,,,,,,,,,,,,,,,,,,,,,,,,,,,,,,,,,Listen to the question and speak out your answer!,1517.9321038722992,None,1517.9144332408905,1519.9321920871735,Was bedeutet diese Abkürzung?,bedeutet,1519.3154935836792,None,1521.7156114578247,None,1534.4996135234833,None,1535.9163749217987,None,./data/Subject_10/Session_03/Exp_data/2020_Aug_14_1159/rec_QA_run_02_block_001_trial_004.wav,,,,10,03,English,A2,True,False,True,False,False,True,True,True,True,True,True,True,No,2,No,No,No,No,2020_Aug_14_1159,nibs_stage_1,3.2.3,60.06871454534257,
2,0,2,0,,,,,1,0,1,0,5,0,5,0,,,,,,,,,,,,,,,,,,,,,,,,,,,,,,,,,,,,,,,,,,,,,,,,,Listen to the question and speak out your answer!,1538.9838299751282,None,1538.9488837718964,1540.9833090305328,Die Wassermelone schmeckt sehr süß.,schmeckt,1540.3332583904266,1542.783418893814,1543.166752576828,1544.183588027954,1555.534054517746,1556.5507888793945,1556.9507949352264,None,./data/Subject_10/Session_03/Exp_data/2020_Aug_14_1159/rec_QA_run_02_block_001_trial_005.wav,,,,10,03,English,A2,True,False,True,False,False,True,True,True,True,True,True,True,No,2,No,No,No,No,2020_Aug_14_1159,nibs_stage_1,3.2.3,60.06871454534257,
2,0,2,0,,,,,1,0,1,0,6,0,6,0,,,,,,,,,,,,,,,,,,,,,,,,,,,,,,,,,,,,,,,,,,,,,,,,,Listen to the question and speak out your answer!,1560.018285036087,None,1559.9833498001099,1562.0177509784698,Eine Stunde kann man in Minuten und Sekunden unterteilen.,unterteilen,1561.4010264873505,None,1565.2345595359802,None,1576.6018464565277,1577.6185629367828,1578.0186820030212,None,./data/Subject_10/Session_03/Exp_data/2020_Aug_14_1159/rec_QA_run_02_block_001_trial_006.wav,,,,10,03,English,A2,True,False,True,False,False,True,True,True,True,True,True,True,No,2,No,No,No,No,2020_Aug_14_1159,nibs_stage_1,3.2.3,60.06871454534257,
2,0,2,0,,,,,1,0,1,0,7,0,7,0,,,,,,,,,,,,,,,,,,,,,,,,,,,,,,,,,,,,,,,,,,,,,,,,,Listen to the question and speak out your answer!,1581.0526850223541,None,1581.0177507400513,1583.0521869659424,Kannst du mir das mit einem konkreten Beispiel erklären?,erklären,1582.4355065822601,1585.6522779464722,1586.035668373108,None,1597.63627243042,None,1599.0531029701233,None,./data/Subject_10/Session_03/Exp_data/2020_Aug_14_1159/rec_QA_run_02_block_001_trial_007.wav,,,,10,03,English,A2,True,False,True,False,False,True,True,True,True,True,True,True,No,2,No,No,No,No,2020_Aug_14_1159,nibs_stage_1,3.2.3,60.06871454534257,
2,0,2,0,,,,,1,0,1,0,8,0,8,0,,,,,,,,,,,,,,,,,,,,,,,,,,,,,,,,,,,,,,,,,,,,,,,,,Listen to the question and speak out your answer!,1602.0870389938354,None,1602.052114725113,1604.087042093277,"Die Produkte, die ich bestellt hatte, kamen drei Tage später an.",kamen,1603.4698305130005,None,1607.9701535701752,None,1618.670728445053,1619.6874389648438,1620.087476015091,None,./data/Subject_10/Session_03/Exp_data/2020_Aug_14_1159/rec_QA_run_02_block_001_trial_008.wav,,,,10,03,English,A2,True,False,True,False,False,True,True,True,True,True,True,True,No,2,No,No,No,No,2020_Aug_14_1159,nibs_stage_1,3.2.3,60.06871454534257,
2,0,2,0,,,,,1,0,1,0,9,0,9,0,,,,,,,,,,,,,,,,,,,,,,,,,,,,,,,,,,,,,,,,,,,,,,,,,Listen to the question and speak out your answer!,1623.1215469837189,None,1623.086651802063,1625.121069908142,Mit dieser neuen Kamera kann man bei jedem Licht fotografieren.,fotografieren,1624.5043544769287,1628.287901878357,1628.6713585853577,None,1639.705439567566,None,1641.1219160556793,None,./data/Subject_10/Session_03/Exp_data/2020_Aug_14_1159/rec_QA_run_02_block_001_trial_009.wav,,,,10,03,English,A2,True,False,True,False,False,True,True,True,True,True,True,True,No,2,No,No,No,No,2020_Aug_14_1159,nibs_stage_1,3.2.3,60.06871454534257,
2,0,2,0,,,,,1,0,1,0,10,0,10,0,,,,,,,,,,,,,,,,,,,,,,,,,,,,,,,,,,,,,,,,,,,,,,,,,Listen to the question and speak out your answer!,1644.156023979187,None,1644.1212527751923,1646.1558220386505,Der Bau des Gebäudes hat 3 Jahre gedauert und ist endlich fast abgeschlossen.,abgeschlossen,1645.5054574012756,None,1650.5390985012054,None,1660.70627450943,None,1662.1230828762054,None,./data/Subject_10/Session_03/Exp_data/2020_Aug_14_1159/rec_QA_run_02_block_001_trial_010.wav,,,,10,03,English,A2,True,False,True,False,False,True,True,True,True,True,True,True,No,2,No,No,No,No,2020_Aug_14_1159,nibs_stage_1,3.2.3,60.06871454534257,
2,0,2,0,,,,,1,0,1,0,11,0,11,0,,,,,,,,,,,,,,,,,,,,,,,,,,,,,,,,,,,,,,,,,,,,,,,,,Listen to the question and speak out your answer!,1665.1901359558105,None,1665.172176361084,1667.1899418830872,Ich habe alle meine Freunde zu meiner Geburtstags Party eingeladen.,eingeladen,1666.573254585266,1670.6905388832092,1671.0734615325928,None,1681.773966550827,None,1683.1908159255981,None,./data/Subject_10/Session_03/Exp_data/2020_Aug_14_1159/rec_QA_run_02_block_001_trial_011.wav,,,,10,03,English,A2,True,False,True,False,False,True,True,True,True,True,True,True,No,2,No,No,No,No,2020_Aug_14_1159,nibs_stage_1,3.2.3,60.06871454534257,
2,0,2,0,,,,,1,0,1,0,12,0,12,0,,,,,,,,,,,,,,,,,,,,,,,,,,,,,,,,,,,,,,,,,,,,,,,,,Listen to the question and speak out your answer!,1686.224443912506,None,1686.1899716854095,1688.224310874939,Antragsteller für ein Visum können online ein Formular ausfüllen.,ausfüllen,1687.6076905727386,1691.4913249015808,1691.8745744228363,None,1702.8085174560547,None,1704.2252368927002,None,./data/Subject_10/Session_03/Exp_data/2020_Aug_14_1159/rec_QA_run_02_block_001_trial_012.wav,,,,10,03,English,A2,True,False,True,False,False,True,True,True,True,True,True,True,No,2,No,No,No,No,2020_Aug_14_1159,nibs_stage_1,3.2.3,60.06871454534257,
2,0,2,0,,,,,1,0,1,0,13,0,13,0,,,,,,,,,,,,,,,,,,,,,,,,,,,,,,,,,,,,,,,,,,,,,,,,,Listen to the question and speak out your answer!,1707.259936094284,None,1707.2410793304443,1709.2587540149689,Planeten kreisen um eine Sonne.,kreisen,1708.6421234607697,1710.8255569934845,1711.209049463272,None,1723.809502363205,None,1725.2263519763947,None,./data/Subject_10/Session_03/Exp_data/2020_Aug_14_1159/rec_QA_run_02_block_001_trial_013.wav,,,,10,03,English,A2,True,False,True,False,False,True,True,True,True,True,True,True,No,2,No,No,No,No,2020_Aug_14_1159,nibs_stage_1,3.2.3,60.06871454534257,
2,0,2,0,,,,,1,0,1,0,14,0,14,0,,,,,,,,,,,,,,,,,,,,,,,,,,,,,,,,,,,,,,,,,,,,,,,,,Listen to the question and speak out your answer!,1728.2932660579681,None,1728.258880853653,1730.2932670116425,Der Lehrer unterrichtet Schüler und bringt ihnen verschiedene Dinge bei.,unterrichtet,1729.676477432251,1733.7268269062042,1734.1101343631744,1735.1272869110107,1744.8773655891418,None,1746.2941648960114,None,./data/Subject_10/Session_03/Exp_data/2020_Aug_14_1159/rec_QA_run_02_block_001_trial_014.wav,,,,10,03,English,A2,True,False,True,False,False,True,True,True,True,True,True,True,No,2,No,No,No,No,2020_Aug_14_1159,nibs_stage_1,3.2.3,60.06871454534257,
2,0,2,0,,,,,1,0,1,0,15,0,15,0,,,,,,,,,,,,,,,,,,,,,,,,,,,,,,,,,,,,,,,,,,,,,,,,,Listen to the question and speak out your answer!,1749.3287560939789,None,1749.3099513053894,1751.3278379440308,"Ob die bereitgestellte Information korrekt ist, müssen wir prüfen.",prüfen,1750.7110204696655,None,1755.177906513214,1756.1946370601654,1765.878487586975,1766.8952078819275,1767.2952148914337,None,./data/Subject_10/Session_03/Exp_data/2020_Aug_14_1159/rec_QA_run_02_block_001_trial_015.wav,,,,10,03,English,A2,True,False,True,False,False,True,True,True,True,True,True,True,No,2,No,No,No,No,2020_Aug_14_1159,nibs_stage_1,3.2.3,60.06871454534257,
2,0,2,0,,,,,1,0,1,0,16,0,16,0,,,,,,,,,,,,,,,,,,,,,,,,,,,,,,,,,,,,,,,,,,,,,,,,,Listen to the question and speak out your answer!,1770.3621408939362,None,1770.3277587890625,1772.3621509075165,Der Mond scheint hell.,scheint,1771.7454545497894,1773.1288540363312,1773.5121955871582,None,1786.9462485313416,1787.9631400108337,1788.3631119728088,None,./data/Subject_10/Session_03/Exp_data/2020_Aug_14_1159/rec_QA_run_02_block_001_trial_016.wav,,,,10,03,English,A2,True,False,True,False,False,True,True,True,True,True,True,True,No,2,No,No,No,No,2020_Aug_14_1159,nibs_stage_1,3.2.3,60.06871454534257,
2,0,2,0,,,,,1,0,1,0,17,0,17,0,,,,,,,,,,,,,,,,,,,,,,,,,,,,,,,,,,,,,,,,,,,,,,,,,Listen to the question and speak out your answer!,1791.3968460559845,None,1791.3788373470306,1793.396586894989,Du darfst diese Bücher aufeinander liegen.,liegen,1792.746556520462,1795.1966860294342,1795.6134724617004,None,1807.9473323822021,1808.964082956314,1809.3642370700836,None,./data/Subject_10/Session_03/Exp_data/2020_Aug_14_1159/rec_QA_run_02_block_001_trial_017.wav,,,,10,03,English,A2,True,False,True,False,False,True,True,True,True,True,True,True,No,2,No,No,No,No,2020_Aug_14_1159,nibs_stage_1,3.2.3,60.06871454534257,
2,0,2,0,,,,,1,0,1,0,18,0,18,0,,,,,,,,,,,,,,,,,,,,,,,,,,,,,,,,,,,,,,,,,,,,,,,,,Listen to the question and speak out your answer!,1812.431736946106,None,1812.413289308548,1814.431056022644,In der Küche steht noch das schumutzige Geschirr vom Frühstück.,steht,1813.8143343925476,1817.3977739810944,1817.781215429306,None,1828.998494386673,1830.0151948928833,1830.415214061737,None,./data/Subject_10/Session_03/Exp_data/2020_Aug_14_1159/rec_QA_run_02_block_001_trial_018.wav,,,,10,03,English,A2,True,False,True,False,False,True,True,True,True,True,True,True,No,2,No,No,No,No,2020_Aug_14_1159,nibs_stage_1,3.2.3,60.06871454534257,
2,0,2,0,,,,,1,0,1,0,19,0,19,0,,,,,,,,,,,,,,,,,,,,,,,,,,,,,,,,,,,,,,,,,,,,,,,,,Listen to the question and speak out your answer!,1833.4826600551605,None,1833.4477288722992,1835.482136964798,Morgen ändert sich das Wetter ganz bestimmt.,bestimmt,1834.8321075439453,None,1837.6988554000854,None,1850.0328884124756,None,1851.4496440887451,None,./data/Subject_10/Session_03/Exp_data/2020_Aug_14_1159/rec_QA_run_02_block_001_trial_019.wav,,,,10,03,English,A2,True,False,True,False,False,True,True,True,True,True,True,True,No,2,No,No,No,No,2020_Aug_14_1159,nibs_stage_1,3.2.3,60.06871454534257,
2,0,2,0,,,,,1,0,1,0,20,0,20,0,,,,,,,,,,,,,,,,,,,,,,,,,,,,,,,,,,,,,,,,,,,,,,,,,Listen to the question and speak out your answer!,1854.5170969963074,None,1854.4824447631836,1856.5167980194092,Die Sonne brennt im Sommer auf der Haut.,brennt,1855.8665573596954,None,1858.5668485164642,None,1871.0673654079437,1872.0840859413147,1872.4841549396515,None,./data/Subject_10/Session_03/Exp_data/2020_Aug_14_1159/rec_QA_run_02_block_001_trial_020.wav,,,,10,03,English,A2,True,False,True,False,False,True,True,True,True,True,True,True,No,2,No,No,No,No,2020_Aug_14_1159,nibs_stage_1,3.2.3,60.06871454534257,
2,0,2,0,,,,,1,0,1,0,21,0,21,0,,,,,,,,,,,,,,,,,,,,,,,,,,,,,,,,,,,,,,,,,,,,,,,,,Listen to the question and speak out your answer!,1875.5512318611145,None,1875.5332951545715,1877.5510330200195,"Wenn du dich einen Moment ausruhst, kannst du mehr leisten.",ausruhst,1876.9009823799133,1880.084491968155,1880.467752456665,1881.484561920166,1892.1017844676971,None,1893.5185329914093,None,./data/Subject_10/Session_03/Exp_data/2020_Aug_14_1159/rec_QA_run_02_block_001_trial_021.wav,,,,10,03,English,A2,True,False,True,False,False,True,True,True,True,True,True,True,No,2,No,No,No,No,2020_Aug_14_1159,nibs_stage_1,3.2.3,60.06871454534257,
2,0,2,0,,,,,1,0,1,0,22,0,22,0,,,,,,,,,,,,,,,,,,,,,,,,,,,,,,,,,,,,,,,,,,,,,,,,,Listen to the question and speak out your answer!,1896.5854830741882,None,1896.5510637760162,1898.5854818820953,Am Geburtstag hat mein Vater mir einen Geschenk geschenkt.,geschenkt,1897.9686784744263,1901.286213874817,1901.6688914299011,None,1913.1695563793182,None,1914.5864489078522,None,./data/Subject_10/Session_03/Exp_data/2020_Aug_14_1159/rec_QA_run_02_block_001_trial_022.wav,,,,10,03,English,A2,True,False,True,False,False,True,True,True,True,True,True,True,No,2,No,No,No,No,2020_Aug_14_1159,nibs_stage_1,3.2.3,60.06871454534257,
2,0,2,0,,,,,1,0,1,0,23,0,23,0,,,,,,,,,,,,,,,,,,,,,,,,,,,,,,,,,,,,,,,,,,,,,,,,,Listen to the question and speak out your answer!,1917.620470046997,None,1917.5854897499084,1919.6201639175415,"Manchmal glaube ich, ich bin zu pessimistisch.",glaube,1918.9698605537415,None,1922.370064496994,None,1934.170732498169,None,1935.5875458717346,None,./data/Subject_10/Session_03/Exp_data/2020_Aug_14_1159/rec_QA_run_02_block_001_trial_023.wav,,,,10,03,English,A2,True,False,True,False,False,True,True,True,True,True,True,True,No,2,No,No,No,No,2020_Aug_14_1159,nibs_stage_1,3.2.3,60.06871454534257,
2,0,2,0,,,,,1,0,1,0,24,0,24,0,,,,,,,,,,,,,,,,,,,,,,,,,,,,,,,,,,,,,,,,,,,,,,,,,Listen to the question and speak out your answer!,1938.6557409763336,None,1938.6365911960602,1940.654347896576,Die Reparatur wird um ein hundert Euro kosten.,kosten,1940.0376465320587,None,1943.3045015335083,None,1955.2384684085846,None,1956.6552109718323,None,./data/Subject_10/Session_03/Exp_data/2020_Aug_14_1159/rec_QA_run_02_block_001_trial_024.wav,,,,10,03,English,A2,True,False,True,False,False,True,True,True,True,True,True,True,No,2,No,No,No,No,2020_Aug_14_1159,nibs_stage_1,3.2.3,60.06871454534257,
2,0,2,0,,,,,1,0,1,0,,,,,,,,,,,,,,,,,,,,,,,,,,,,,,,,,,,,,,,,,,1960.6720070838928,None,,,,,,,,,,,,,,,,,,,,,,,,,,,,,10,03,English,A2,True,False,True,False,False,True,True,True,True,True,True,True,No,2,No,No,No,No,2020_Aug_14_1159,nibs_stage_1,3.2.3,60.06871454534257,
2,0,2,0,,,,,,,,,,,,,,,,,,,,,,,,,,,,,,,,,,,,,,,,,,,,,,,,,,,,,,,,,,,,,,,,,,,,,,,,,,,,,Please remain seated until further instruction via the earphone.,57.20521688461304,None,10,03,English,A2,True,False,True,False,False,True,True,True,True,True,True,True,No,2,No,No,No,No,2020_Aug_14_1159,nibs_stage_1,3.2.3,60.06871454534257,
